"rt","key_press","reward","type","marble","trial_num","stim_1","stim_2","new_stim","change_index","block","changed","marble_set"
"17301.300000071526","d","3","1","1","1","74","19","18","0","0","0","1"
"3736.5","f","2","1","0","2","44","67","29","0","0","0","1"
"1127.5","d","2","1","0","3","71","38","14","0","0","0","1"
"958.2999999523163","f","2","1","0","4","16","73","86","0","0","0","1"
"153.09999990463257","d","2","1","0","5","38","96","68","0","0","0","1"
"1038.5999999046326","f","3","1","1","6","7","66","37","0","0","0","1"
"1206.1000000238419","d","2","1","0","7","3","85","47","0","0","0","1"
"1267.1999999284744","f","2","1","0","8","38","72","50","0","0","0","1"
"1144.4000000953674","d","3","1","1","9","64","1","73","0","0","0","1"
"1213.1000000238419","d","4","1","2","10","6","26","71","0","0","0","1"
"1219","d","2","1","0","11","62","6","41","0","0","0","1"
"1088","d","2","1","0","12","28","59","82","0","0","0","1"
"1166.2000000476837","d","2","1","0","13","66","94","47","0","0","0","1"
"1154.2999999523163","f","2","1","0","14","19","40","95","0","0","0","1"
"1060.6000000238419","d","4","1","2","15","75","26","68","0","0","0","1"
"2258","d","4","1","2","16","29","27","2","0","0","0","1"
"1050.2999999523163","d","2","1","0","17","82","57","44","0","0","0","1"
"1883.8999999761581","f","2","1","0","18","39","90","7","0","0","0","1"
"1081.5999999046326","d","2","1","0","19","71","60","97","0","0","0","1"
"1266.4000000953674","f","2","1","0","20","65","71","20","0","0","0","1"
"7747.299999952316","j","3","0","1","21","72","93","29","0","0","0","1"
"1511.1999999284744","k","0","0","-1","22","30","72","72","0","0","0","1"
"958.8000000715256","j","3","0","1","23","11","0","95","1","0","0","1"
"1072.6000000238419","k","3","0","1","24","1","16","90","1","0","1","1"
"920.1000000238419","j","3","0","1","25","86","13","34","0","0","0","1"
"1033.4000000953674","k","0","0","-1","26","35","5","65","0","0","0","1"
"1018.6000000238419","j","0","0","-1","27","19","71","27","1","0","1","1"
"932.6000000238419","k","3","0","1","28","85","96","53","0","0","1","1"
"899","j","3","0","1","29","38","63","14","1","0","0","1"
"973","k","3","0","1","30","52","13","64","1","0","1","1"
"855.3000000715256","j","0","0","-1","31","99","77","29","1","0","1","1"
"1368.7000000476837","k","3","0","1","32","67","68","50","0","0","1","1"
"1147.1999999284744","k","0","0","-1","33","68","4","83","0","0","0","1"
"1367","j","0","0","-1","34","77","1","64","0","0","1","1"
"1004.5999999046326","j","0","0","-1","35","61","49","14","0","0","1","1"
"910.8999999761581","k","0","0","-1","36","76","19","71","0","0","0","1"
"1276.5","j","3","0","1","37","41","16","96","0","0","0","1"
"951.9000000953674","k","3","0","1","38","84","4","36","1","0","1","1"
"924","j","0","0","-1","39","84","93","8","1","0","1","1"
"1076","k","0","0","-1","40","38","66","31","1","0","0","1"
"57833.60000002384","","","","","","","","","","","",""
"6298.300000071526","","","","","","","","","","","",""
"null","null","-1","1","-1","43","94","0","58","0","0","0","1"
"1181.3000000715256","f","3","1","1","44","1","86","93","0","0","1","1"
"964.0999999046326","d","2","1","0","45","46","73","83","0","0","1","1"
"null","null","-1","0","-1","46","31","7","52","1","0","1","1"
"1174","f","2","1","0","47","61","26","93","1","0","0","1"
"null","null","-1","0","-1","48","2","24","37","1","0","0","1"
"null","null","-1","0","-1","49","3","35","16","1","0","1","1"
"1308.8999999761581","d","2","1","0","50","72","39","41","1","0","0","1"
"1366.7999999523163","d","2","1","0","51","54","64","22","0","0","0","1"
"null","null","-1","0","-1","52","81","41","18","1","0","1","1"
"1208.3999999761581","d","3","1","1","53","77","98","0","1","0","0","1"
"null","null","-1","0","-1","54","72","56","8","1","0","0","1"
"1610","d","4","1","2","55","49","75","71","0","0","1","1"
"null","null","-1","0","-1","56","53","52","62","0","0","0","1"
"null","null","-1","0","-1","57","33","27","0","1","0","1","1"
"null","null","-1","0","-1","58","54","78","98","0","0","0","1"
"null","null","-1","1","-1","59","90","72","91","0","0","1","1"
"null","null","-1","1","-1","60","22","42","79","0","0","1","1"
"null","null","-1","0","-1","61","82","89","50","0","0","1","1"
"null","null","-1","0","-1","62","85","95","79","1","0","0","1"
"null","null","-1","1","-1","63","56","23","83","1","1","0","1"
"1646.1000000238419","d","2","1","0","64","61","22","46","1","1","1","1"
"null","null","-1","0","-1","65","39","22","72","0","1","1","1"
"null","null","-1","0","-1","66","13","97","90","0","1","0","1"
"1887.3999999761581","d","3","1","1","67","57","96","84","0","1","1","1"
"null","null","-1","0","-1","68","70","35","52","0","1","1","1"
"null","null","-1","0","-1","69","6","21","51","0","1","0","1"
"null","null","-1","0","-1","70","50","40","77","1","1","0","1"
"null","null","-1","0","-1","71","92","53","61","0","1","1","1"
"null","null","-1","0","-1","72","64","39","67","0","1","1","1"
"null","null","-1","1","-1","73","39","79","78","1","1","1","1"
"1622","f","3","1","1","74","37","86","4","1","1","0","1"
"1330.2000000476837","f","2","1","0","75","35","98","96","0","1","1","1"
"null","null","-1","0","-1","76","3","46","25","1","1","0","1"
"1423.5","d","2","1","0","77","76","68","87","1","1","0","1"
"null","null","-1","0","-1","78","87","95","2","1","1","1","1"
"1546.2000000476837","d","2","1","0","79","26","23","9","0","1","0","1"
"1126.5","d","3","1","1","80","64","53","32","1","1","0","1"
"null","null","-1","1","-1","81","87","83","4","0","1","0","1"
"null","null","-1","0","-1","82","67","61","42","1","1","1","1"
"1397.1999999284744","d","4","1","2","83","3","32","56","1","2","1","1"
"1869.5","f","3","1","1","84","48","44","13","1","2","1","1"
"null","null","-1","0","-1","85","2","21","17","1","2","0","1"
"null","null","-1","0","-1","86","86","33","98","0","2","1","1"
"1524.8999999761581","f","2","1","0","87","55","90","28","0","2","0","1"
"1450","f","2","1","0","88","9","55","33","0","2","1","1"
"null","null","-1","0","-1","89","97","25","23","1","2","0","1"
"null","null","-1","0","-1","90","3","48","0","1","2","0","1"
"1558","d","2","1","0","91","64","58","67","0","2","0","1"
"null","null","-1","0","-1","92","58","8","94","0","2","1","1"
"1134.6000000238419","d","2","1","0","93","37","18","14","1","2","1","1"
"201.39999997615814","f","3","1","1","94","22","89","8","0","2","1","1"
"null","null","-1","0","-1","95","18","80","11","0","2","1","1"
"null","null","-1","0","-1","96","73","68","37","1","2","0","1"
"1596.7999999523163","f","3","1","1","97","52","88","67","0","2","0","1"
"null","null","-1","0","-1","98","32","19","78","1","2","0","1"
"1095.5","f","2","1","0","99","85","12","76","1","2","0","1"
"530.6000000238419","f","2","1","0","100","99","33","14","0","2","1","1"
"null","null","-1","0","-1","101","97","83","98","1","2","0","1"
"null","null","-1","0","-1","102","52","58","85","0","2","1","1"
"null","null","-1","0","-1","103","80","78","35","1","3","1","1"
"null","null","-1","1","-1","104","1","59","49","1","3","1","1"
"1118","d","2","1","0","105","92","0","53","0","3","0","1"
"null","null","-1","0","-1","106","99","59","50","1","3","0","1"
"1858.4000000953674","f","2","1","0","107","68","8","23","0","3","1","1"
"null","null","-1","0","-1","108","54","94","83","1","3","1","1"
"null","null","-1","0","-1","109","14","21","26","1","3","0","1"
"1442.3999999761581","f","3","1","1","110","87","89","12","1","3","0","1"
"1331","f","4","1","2","111","58","2","9","0","3","0","1"
"null","null","-1","0","-1","112","46","53","20","0","3","0","1"
"null","null","-1","0","-1","113","88","45","84","0","3","1","1"
"null","null","-1","0","-1","114","3","32","75","1","3","1","1"
"943.8000000715256","d","3","1","1","115","74","0","87","0","3","1","1"
"null","null","-1","0","-1","116","56","45","15","0","3","1","1"
"1357.2000000476837","f","2","1","0","117","18","33","35","0","3","0","1"
"1093.6000000238419","d","2","1","0","118","40","88","91","0","3","0","1"
"null","null","-1","0","-1","119","93","8","11","1","3","1","1"
"1368.7000000476837","f","2","1","0","120","73","47","37","1","3","1","1"
"1163.3999999761581","f","4","1","2","121","75","46","69","1","3","0","1"
"null","null","-1","0","-1","122","47","38","86","0","3","0","1"
"null","null","-1","0","-1","123","23","24","18","0","4","0","1"
"null","null","-1","0","-1","124","56","78","74","0","4","1","1"
"null","null","-1","1","-1","125","72","65","93","1","4","0","1"
"1680.1999999284744","d","3","1","1","126","84","81","36","1","4","1","1"
"null","null","-1","0","-1","127","45","34","35","0","4","1","1"
"1272.6999999284744","d","2","1","0","128","97","7","86","1","4","1","1"
"null","null","-1","0","-1","129","54","46","71","1","4","0","1"
"null","null","-1","0","-1","130","65","86","81","1","4","1","1"
"1292.5","d","2","1","0","131","96","27","16","0","4","0","1"
"1572.5","d","2","1","0","132","76","18","62","0","4","0","1"
"1264.7000000476837","d","2","1","0","133","98","61","70","1","4","1","1"
"1293.6000000238419","d","3","1","1","134","83","66","63","1","4","0","1"
"null","null","-1","0","-1","135","58","63","31","0","4","0","1"
"null","null","-1","0","-1","136","35","15","60","0","4","1","1"
"1076.6999999284744","f","3","1","1","137","45","4","9","0","4","0","1"
"null","null","-1","0","-1","138","36","18","58","0","4","1","1"
"null","null","-1","0","-1","139","88","72","11","1","4","1","1"
"89.30000007152557","d","2","1","0","140","92","36","57","1","4","0","1"
"null","null","-1","0","-1","141","31","44","33","1","4","1","1"
"1054.3999999761581","f","3","1","1","142","36","1","30","0","4","0","1"
"null","null","-1","1","-1","143","54","88","16","0","5","0","1"
"null","null","-1","0","-1","144","92","55","43","1","5","0","1"
"null","null","-1","0","-1","145","59","98","97","0","5","0","1"
"null","null","-1","0","-1","146","86","20","52","1","5","0","1"
"1337.9000000953674","f","3","1","1","147","35","52","56","0","5","1","1"
"940","f","2","1","0","148","21","55","28","1","5","0","1"
"1211.3999999761581","d","4","1","2","149","50","28","56","1","5","1","1"
"32.39999997615814","f","2","1","0","150","91","5","36","0","5","0","1"
"null","null","-1","0","-1","151","10","37","12","1","5","1","1"
"null","null","-1","0","-1","152","6","39","31","0","5","1","1"
"1114.1999999284744","f","2","1","0","153","38","33","51","0","5","1","1"
"942.2999999523163","f","2","1","0","154","36","15","64","1","5","0","1"
"null","null","-1","0","-1","155","41","71","82","1","5","0","1"
"1191.1000000238419","f","4","1","2","156","71","88","79","0","5","0","1"
"1432.1000000238419","f","2","1","0","157","60","31","89","1","5","1","1"
"null","null","-1","0","-1","158","96","85","9","0","5","1","1"
"null","null","-1","0","-1","159","7","21","14","1","5","0","1"
"null","null","-1","0","-1","160","38","47","20","0","5","1","1"
"1091.5","d","2","1","0","161","47","46","98","0","5","1","1"
"null","null","-1","0","-1","162","70","84","28","1","5","1","1"
"null","null","-1","0","-1","163","18","20","24","0","6","0","1"
"null","null","-1","0","-1","164","53","39","32","0","6","0","1"
"1251.2999999523163","d","2","1","0","165","96","90","91","1","6","0","1"
"null","null","-1","0","-1","166","50","65","23","0","6","1","1"
"null","null","-1","0","-1","167","60","66","23","1","6","1","1"
"1755.3999999761581","f","3","1","1","168","26","92","61","1","6","0","1"
"null","null","-1","0","-1","169","42","56","95","0","6","1","1"
"1263.5","d","3","1","1","170","57","43","28","1","6","0","1"
"19.5","f","3","1","1","171","62","67","55","0","6","1","1"
"30.700000047683716","f","4","1","2","172","25","32","34","0","6","1","1"
"1493.5","d","2","1","0","173","59","78","35","1","6","1","1"
"1380.3999999761581","f","2","1","0","174","9","89","0","1","6","1","1"
"null","null","-1","0","-1","175","68","83","94","0","6","0","1"
"null","null","-1","0","-1","176","94","26","3","1","6","0","1"
"null","null","-1","0","-1","177","39","67","73","0","6","1","1"
"null","null","-1","1","-1","178","36","18","16","1","6","0","1"
"null","null","-1","0","-1","179","2","91","1","1","6","0","1"
"310.1999999284744","f","3","1","1","180","57","72","27","0","6","0","1"
"null","null","-1","0","-1","181","59","17","35","0","6","1","1"
"1142.1000000238419","f","2","1","0","182","76","43","37","1","6","1","1"
"null","null","-1","0","-1","183","56","45","55","0","7","1","1"
"null","null","-1","1","-1","184","85","11","50","1","7","0","1"
"null","null","-1","0","-1","185","44","23","32","1","7","0","1"
"970.6000000238419","f","4","1","2","186","33","74","65","1","7","0","1"
"1547.5","d","2","1","0","187","92","97","46","0","7","1","1"
"1112.5","d","4","1","2","188","50","55","17","0","7","0","1"
"1132.8999999761581","d","4","1","2","189","19","16","67","1","7","0","1"
"1234.8000000715256","d","4","1","2","190","2","11","36","0","7","0","1"
"null","null","-1","0","-1","191","26","13","39","1","7","0","1"
"12.300000071525574","f","3","1","1","192","70","24","68","1","7","1","1"
"null","null","-1","0","-1","193","46","32","90","1","7","1","1"
"1203.8999999761581","f","2","1","0","194","45","33","72","0","7","0","1"
"null","null","-1","0","-1","195","3","1","16","0","7","1","1"
"null","null","-1","0","-1","196","69","36","42","0","7","0","1"
"2006.2000000476837","f","3","1","1","197","57","52","50","1","7","1","1"
"null","null","-1","0","-1","198","90","24","41","0","7","1","1"
"1009.7999999523163","d","4","1","2","199","17","53","80","1","7","1","1"
"null","null","-1","0","-1","200","42","84","16","0","7","1","1"
"null","null","-1","0","-1","201","98","33","62","1","7","0","1"
"null","null","-1","0","-1","202","83","2","71","0","7","1","1"
"1204.7000000476837","d","2","1","0","203","22","10","56","0","8","0","1"
"null","null","-1","0","-1","204","64","48","36","1","8","0","1"
"null","null","-1","0","-1","205","95","68","63","0","8","1","1"
"1293.1000000238419","d","2","1","0","206","91","24","43","1","8","0","1"
"null","null","-1","0","-1","207","11","10","26","0","8","1","1"
"null","null","-1","0","-1","208","52","80","60","0","8","1","1"
"null","null","-1","0","-1","209","98","91","36","0","8","0","1"
"1336.2999999523163","f","2","1","0","210","48","10","94","1","8","1","1"
"null","null","-1","0","-1","211","2","50","29","1","8","0","1"
"null","null","-1","0","-1","212","74","33","49","1","8","0","1"
"null","null","-1","0","-1","213","58","96","5","1","8","1","1"
"1278.8999999761581","f","2","1","0","214","51","50","68","1","8","0","1"
"null","null","-1","1","-1","215","23","90","84","0","8","0","1"
"1343","f","4","1","2","216","80","38","17","1","8","0","1"
"null","null","-1","0","-1","217","2","46","91","0","8","1","1"
"1319.2000000476837","d","2","1","0","218","59","77","27","1","8","1","1"
"null","null","-1","0","-1","219","45","43","69","1","8","0","1"
"1481","d","2","1","0","220","94","56","4","0","8","1","1"
"1407.7999999523163","d","2","1","0","221","6","15","14","0","8","1","1"
"1260","f","2","1","0","222","60","15","76","0","8","1","1"
"null","null","-1","0","-1","223","44","79","56","0","9","0","1"
"null","null","-1","0","-1","224","45","13","33","1","9","0","1"
"1909.2000000476837","d","2","1","0","225","72","14","67","1","9","1","1"
"1114.3999999761581","d","2","1","0","226","70","60","19","1","9","1","1"
"1223.5","d","3","1","1","227","70","63","45","1","9","1","1"
"504.5","d","3","1","1","228","36","39","45","0","9","1","1"
"150.19999992847443","f","2","1","0","229","4","2","56","0","9","1","1"
"null","null","-1","0","-1","230","77","21","80","0","9","1","1"
"null","null","-1","0","-1","231","20","53","76","0","9","0","1"
"218.89999997615814","f","2","1","0","232","18","2","33","0","9","1","1"
"1174.7999999523163","d","3","1","1","233","20","56","89","1","9","1","1"
"1196.9000000953674","d","3","1","1","234","81","19","67","1","9","0","1"
"null","null","-1","0","-1","235","85","27","81","1","9","1","1"
"null","null","-1","0","-1","236","90","75","45","1","9","0","1"
"null","null","-1","0","-1","237","68","4","20","0","9","0","1"
"null","null","-1","0","-1","238","24","3","63","1","9","0","1"
"224.70000004768372","f","2","1","0","239","79","38","85","1","9","0","1"
"null","null","-1","0","-1","240","11","4","35","0","9","1","1"
"null","null","-1","1","-1","241","33","29","0","0","9","0","1"
"null","null","-1","0","-1","242","14","24","91","0","9","0","1"
