"rt","key_press","reward","type","marble","trial_num","stim_1","stim_2","new_stim","change_index","block","changed","marble_set"
"611","f","3","1","2","1","46","89","60","0","0","0","4"
"830","d","3","1","2","2","21","19","71","0","0","0","4"
"854","d","2","1","0","3","65","37","61","0","0","0","4"
"789","f","4","1","1","4","89","50","28","0","0","0","4"
"827","d","4","1","1","5","90","92","43","0","0","0","4"
"638","f","3","1","2","6","32","13","40","0","0","0","4"
"738","d","2","1","0","7","21","38","29","0","0","0","4"
"608","f","2","1","0","8","12","88","7","0","0","0","4"
"553","d","2","1","0","9","12","9","15","0","0","0","4"
"669","d","2","1","0","10","74","9","59","0","0","0","4"
"676","f","2","1","0","11","38","37","31","0","0","0","4"
"656","d","3","1","2","12","83","35","58","0","0","0","4"
"788","d","3","1","2","13","64","5","40","0","0","0","4"
"660","d","2","1","0","14","13","17","84","0","0","0","4"
"573","f","2","1","0","15","57","69","85","0","0","0","4"
"560","d","4","1","1","16","10","49","5","0","0","0","4"
"324","d","2","1","0","17","27","19","6","0","0","0","4"
"541","f","2","1","0","18","73","16","64","0","0","0","4"
"782","d","2","1","0","19","26","95","4","0","0","0","4"
"633","d","3","1","2","20","61","15","52","0","0","0","4"
"559","j","0","0","-1","21","25","27","89","1","0","1","4"
"1096","j","3","0","2","22","25","50","64","1","0","0","4"
"790","k","0","0","-1","23","24","65","97","0","0","0","4"
"798","j","3","0","2","24","78","87","58","1","0","0","4"
"942","j","0","0","-1","25","87","68","63","1","0","1","4"
"680","k","3","0","2","26","55","76","47","0","0","1","4"
"1147","j","3","0","2","27","46","5","19","1","0","0","4"
"692","j","0","0","-1","28","26","38","16","1","0","1","4"
"700","k","0","0","-1","29","34","81","59","1","0","0","4"
"632","j","0","0","-1","30","7","66","18","0","0","1","4"
"669","k","3","0","2","31","66","18","89","0","0","1","4"
"758","j","3","0","2","32","33","2","78","1","0","0","4"
"725","j","3","0","2","33","12","92","56","0","0","0","4"
"729","k","3","0","2","34","14","15","63","0","0","1","4"
"757","j","3","0","2","35","70","16","71","0","0","0","4"
"696","k","0","0","-1","36","33","52","46","0","0","0","4"
"721","j","0","0","-1","37","95","62","68","1","0","1","4"
"703","k","3","0","2","38","74","32","18","1","0","1","4"
"964","j","0","0","-1","39","30","86","60","0","0","1","4"
"689","k","0","0","-1","40","97","82","19","0","0","0","4"
"4409","","","","","","","","","","","",""
"6796","","","","","","","","","","","",""
"3075","","","","","","","","","","","",""
"1016","j","3","0","2","44","94","68","14","1","0","0","4"
"966","d","2","1","0","45","9","69","2","0","0","1","4"
"1338","j","3","0","2","46","14","59","58","1","0","0","4"
"913","d","3","1","2","47","80","31","11","1","0","1","4"
"963","j","0","0","-1","48","84","63","61","1","0","1","4"
"1076","k","3","0","2","49","34","24","71","0","0","1","4"
"994","d","3","1","2","50","9","78","15","0","0","1","4"
"939","k","3","0","2","51","77","22","32","1","0","1","4"
"788","d","2","1","0","52","4","14","25","0","0","0","4"
"1390","d","4","1","1","53","9","43","51","1","0","0","4"
"1037","k","3","0","2","54","14","31","71","0","0","1","4"
"810","d","2","1","0","55","80","35","19","0","0","0","4"
"1328","k","3","0","2","56","57","34","98","1","0","1","4"
"1012","d","4","1","1","57","13","24","0","1","0","1","4"
"1029","k","3","0","2","58","93","54","78","0","0","1","4"
"1030","k","0","0","-1","59","79","57","23","0","0","0","4"
"914","d","3","1","2","60","58","88","98","1","0","0","4"
"1077","k","0","0","-1","61","62","68","29","0","0","0","4"
"1313","d","2","1","0","62","27","39","3","0","0","0","4"
"1129","f","4","1","1","63","34","10","37","1","0","0","4"
"959","j","0","0","-1","64","23","27","34","0","1","1","4"
"901","k","3","0","2","65","16","14","70","0","1","1","4"
"960","k","3","0","2","66","17","59","16","0","1","1","4"
"1107","k","3","0","2","67","71","14","61","0","1","1","4"
"1598","d","2","1","0","68","99","29","63","1","1","1","4"
"1045","k","0","0","-1","69","1","52","27","1","1","0","4"
"1061","d","2","1","0","70","50","7","65","1","1","0","4"
"1136","j","3","0","2","71","75","28","68","0","1","0","4"
"964","k","0","0","-1","72","39","14","8","1","1","0","4"
"980","d","3","1","2","73","30","82","74","0","1","1","4"
"853","d","2","1","0","74","52","1","12","0","1","1","4"
"974","d","4","1","1","75","44","45","6","1","1","0","4"
"947","f","2","1","0","76","49","11","9","0","1","0","4"
"1024","d","2","1","0","77","96","24","6","1","1","0","4"
"1978","j","0","0","-1","78","10","75","97","0","1","1","4"
"1124","d","2","1","0","79","99","35","63","1","1","0","4"
"934","j","3","0","2","80","63","61","1","1","1","0","4"
"939","d","3","1","2","81","18","62","32","1","1","0","4"
"888","k","3","0","2","82","66","76","60","0","1","1","4"
"769","d","3","1","2","83","4","17","13","1","1","1","4"
"888","d","3","1","2","84","97","20","93","0","2","1","4"
"933","d","4","1","1","85","50","9","16","0","2","1","4"
"1036","k","3","0","2","86","27","54","42","1","2","1","4"
"923","k","0","0","-1","87","16","48","98","1","2","0","4"
"1290","j","0","0","-1","88","84","17","11","0","2","1","4"
"947","k","0","0","-1","89","24","25","56","0","2","0","4"
"817","d","2","1","0","90","47","43","27","0","2","0","4"
"1039","d","2","1","0","91","77","92","98","1","2","0","4"
"1007","f","3","1","2","92","70","84","49","1","2","0","4"
"1403","j","0","0","-1","93","88","80","16","0","2","1","4"
"1393","k","3","0","2","94","73","46","8","1","2","1","4"
"1507","k","0","0","-1","95","46","23","79","1","2","0","4"
"1147","d","2","1","0","96","72","87","55","1","2","1","4"
"985","k","0","0","-1","97","87","8","61","1","2","0","4"
"847","d","3","1","2","98","35","9","53","0","2","0","4"
"1023","d","4","1","1","99","40","31","2","0","2","1","4"
"1383","d","2","1","0","100","23","34","15","0","2","1","4"
"1354","k","3","0","2","101","98","36","76","1","2","1","4"
"1507","k","0","0","-1","102","51","95","83","0","2","0","4"
"861","d","2","1","0","103","81","47","75","1","2","0","4"
"1093","k","0","0","-1","104","36","65","69","0","3","0","4"
"881","k","3","0","2","105","33","53","27","1","3","1","4"
"912","k","3","0","2","106","14","34","84","1","3","1","4"
"874","d","2","1","0","107","73","4","11","0","3","0","4"
"943","k","3","0","2","108","34","81","26","0","3","1","4"
"990","d","3","1","2","109","72","11","81","1","3","1","4"
"1104","d","2","1","0","110","31","51","44","0","3","1","4"
"1575","k","0","0","-1","111","63","51","91","0","3","0","4"
"868","d","2","1","0","112","98","37","78","0","3","0","4"
"1311","k","0","0","-1","113","25","34","34","1","3","0","4"
"1115","d","2","1","0","114","18","35","80","1","3","0","4"
"925","k","0","0","-1","115","59","14","16","1","3","0","4"
"949","k","0","0","-1","116","90","28","40","1","3","0","4"
"987","k","3","0","2","117","6","96","15","0","3","1","4"
"865","d","4","1","1","118","32","65","46","0","3","1","4"
"845","j","0","0","-1","119","72","51","1","1","3","1","4"
"1032","d","2","1","0","120","49","80","91","1","3","1","4"
"1050","d","3","1","2","121","47","96","73","0","3","1","4"
"826","d","2","1","0","122","59","71","64","1","3","0","4"
"1548","d","3","1","2","123","34","3","36","0","3","0","4"
"913","k","3","0","2","124","12","27","10","0","4","1","4"
"792","d","3","1","2","125","70","71","46","1","4","1","4"
"753","d","3","1","2","126","65","8","64","0","4","0","4"
"959","k","3","0","2","127","34","59","22","1","4","1","4"
"936","d","2","1","0","128","21","71","26","1","4","1","4"
"867","d","2","1","0","129","50","2","19","0","4","0","4"
"784","d","2","1","0","130","65","17","25","0","4","0","4"
"917","d","4","1","1","131","88","9","42","1","4","0","4"
"969","k","3","0","2","132","97","72","75","0","4","1","4"
"792","d","3","1","2","133","35","67","41","0","4","0","4"
"807","k","0","0","-1","134","26","14","62","0","4","0","4"
"1048","k","0","0","-1","135","23","91","97","0","4","0","4"
"837","k","0","0","-1","136","95","27","64","1","4","0","4"
"852","k","0","0","-1","137","82","53","35","1","4","0","4"
"931","j","0","0","-1","138","14","34","11","1","4","1","4"
"792","k","0","0","-1","139","60","94","53","1","4","0","4"
"807","j","0","0","-1","140","56","49","8","1","4","1","4"
"883","d","2","1","0","141","69","17","32","1","4","1","4"
"811","d","3","1","2","142","65","47","88","0","4","1","4"
"862","d","3","1","2","143","4","21","35","0","4","1","4"
"868","k","3","0","2","144","49","0","23","1","5","1","4"
"832","d","2","1","0","145","90","47","43","0","5","0","4"
"886","f","4","1","1","146","78","33","24","1","5","0","4"
"962","k","3","0","2","147","35","59","95","1","5","1","4"
"989","k","3","0","2","148","37","36","40","0","5","1","4"
"985","j","0","0","-1","149","67","27","5","0","5","1","4"
"925","d","3","1","2","150","12","44","92","0","5","0","4"
"1194","d","3","1","2","151","20","29","61","1","5","0","4"
"978","k","0","0","-1","152","48","20","65","0","5","0","4"
"1034","j","3","0","2","153","18","63","21","0","5","0","4"
"1449","k","3","0","2","154","35","2","48","0","5","1","4"
"877","j","3","0","2","155","62","37","38","1","5","0","4"
"1013","d","2","1","0","156","76","52","64","1","5","0","4"
"830","d","3","1","2","157","61","60","17","0","5","0","4"
"879","d","3","1","2","158","29","82","60","0","5","1","4"
"824","d","2","1","0","159","84","20","31","1","5","0","4"
"936","d","3","1","2","160","77","44","56","1","5","1","4"
"null","null","-1","1","-1","161","17","18","28","0","5","1","4"
"872","k","3","0","2","162","59","15","84","1","5","1","4"
"853","k","3","0","2","163","93","10","59","1","5","1","4"
"930","j","0","0","-1","164","26","62","88","0","6","1","4"
"856","d","3","1","2","165","77","2","91","1","6","0","4"
"1044","k","0","0","-1","166","52","36","30","0","6","0","4"
"1585","k","3","0","2","167","15","19","36","1","6","1","4"
"880","d","4","1","1","168","55","65","72","1","6","0","4"
"865","d","4","1","1","169","41","37","42","0","6","0","4"
"880","d","3","1","2","170","20","58","84","0","6","1","4"
"1029","k","0","0","-1","171","56","45","83","0","6","0","4"
"858","k","0","0","-1","172","84","11","13","1","6","0","4"
"787","d","3","1","2","173","50","94","56","0","6","1","4"
"1267","d","2","1","0","174","85","48","68","0","6","0","4"
"737","d","2","1","0","175","55","53","32","1","6","0","4"
"1841","k","0","0","-1","176","18","73","45","0","6","0","4"
"945","d","3","1","2","177","58","53","52","0","6","1","4"
"813","k","3","0","2","178","19","17","39","1","6","1","4"
"823","d","2","1","0","179","65","82","50","1","6","0","4"
"779","d","2","1","0","180","46","94","63","1","6","1","4"
"1121","j","0","0","-1","181","15","49","29","1","6","1","4"
"1966","k","3","0","2","182","14","89","86","1","6","1","4"
"null","null","-1","0","-1","183","19","89","66","0","6","1","4"
"954","k","3","0","2","184","64","52","31","0","7","1","4"
"851","k","3","0","2","185","72","44","54","1","7","1","4"
"889","d","2","1","0","186","31","66","54","0","7","0","4"
"813","k","3","0","2","187","82","5","43","1","7","1","4"
"1011","j","3","0","2","188","68","9","77","1","7","0","4"
"919","k","0","0","-1","189","52","41","12","0","7","0","4"
"858","d","3","1","2","190","69","87","96","1","7","1","4"
"828","d","2","1","0","191","7","78","84","0","7","0","4"
"1074","k","0","0","-1","192","13","6","55","1","7","0","4"
"890","k","3","0","2","193","55","18","97","0","7","1","4"
"916","d","2","1","0","194","26","70","68","0","7","0","4"
"863","d","2","1","0","195","31","53","5","1","7","0","4"
"918","j","0","0","-1","196","72","53","22","1","7","1","4"
"1123","d","2","1","0","197","50","8","73","0","7","1","4"
"1001","j","3","0","2","198","42","94","41","1","7","0","4"
"1048","d","2","1","0","199","51","95","55","1","7","0","4"
"999","d","2","1","0","200","67","76","12","0","7","1","4"
"875","d","2","1","0","201","52","25","49","0","7","0","4"
"1092","k","3","0","2","202","92","36","44","0","7","1","4"
"907","d","2","1","0","203","60","8","81","1","7","1","4"
"763","d","2","1","0","204","32","79","11","0","8","0","4"
"924","d","2","1","0","205","31","65","83","1","8","0","4"
"951","j","3","0","2","206","7","94","0","1","8","0","4"
"859","d","2","1","0","207","96","16","9","0","8","0","4"
"920","d","3","1","2","208","20","77","0","0","8","1","4"
"874","k","3","0","2","209","66","41","33","0","8","1","4"
"892","k","0","0","-1","210","74","88","82","0","8","0","4"
"901","j","3","0","2","211","39","42","7","1","8","0","4"
"797","d","2","1","0","212","23","43","5","0","8","1","4"
"1231","j","3","0","2","213","8","51","47","1","8","0","4"
"905","k","3","0","2","214","13","22","69","1","8","1","4"
"824","d","2","1","0","215","85","92","32","0","8","1","4"
"884","k","3","0","2","216","23","72","20","0","8","1","4"
"1867","k","0","0","-1","217","21","44","39","1","8","0","4"
"876","d","3","1","2","218","78","20","59","0","8","1","4"
"981","k","0","0","-1","219","36","10","79","1","8","0","4"
"1954","f","2","1","0","220","84","66","9","1","8","0","4"
"985","d","3","1","2","221","5","63","73","1","8","1","4"
"null","null","-1","0","-1","222","40","17","16","1","8","1","4"
"849","d","4","1","1","223","13","70","41","0","8","1","4"
"920","j","3","0","2","224","18","1","60","0","9","0","4"
"828","d","4","1","1","225","46","20","18","0","9","1","4"
"1907","j","0","0","-1","226","10","30","46","0","9","1","4"
"894","j","0","0","-1","227","22","53","45","0","9","1","4"
"864","k","0","0","-1","228","24","93","56","1","9","0","4"
"1205","j","0","0","-1","229","54","98","58","1","9","1","4"
"827","d","2","1","0","230","29","53","38","1","9","0","4"
"1007","d","2","1","0","231","39","10","52","1","9","0","4"
"761","d","2","1","0","232","69","72","47","0","9","0","4"
"1008","j","3","0","2","233","34","44","96","1","9","0","4"
"1016","k","3","0","2","234","36","68","8","0","9","1","4"
"952","d","4","1","1","235","14","55","81","0","9","0","4"
"881","k","3","0","2","236","41","11","44","1","9","1","4"
"990","k","3","0","2","237","16","92","42","1","9","1","4"
"826","k","3","0","2","238","72","62","41","1","9","1","4"
"807","d","2","1","0","239","5","11","80","0","9","1","4"
"793","d","2","1","0","240","31","95","1","0","9","0","4"
"1010","d","2","1","0","241","71","42","94","1","9","0","4"
"764","d","4","1","1","242","32","1","40","1","9","1","4"
"878","d","3","1","2","243","74","91","31","0","9","0","4"
