"rt","key_press","reward","type","marble","trial_num","stim_1","stim_2","new_stim","change_index","block","changed","marble_set"
"4361.300000000745","d","2","1","2","1","86","64","67","0","0","0","3"
"3301.900000002235","f","3","1","0","2","53","65","39","0","0","0","3"
"352.6000000014901","d","3","1","0","3","89","93","85","0","0","0","3"
"575.3999999985099","f","3","1","0","4","37","1","20","0","0","0","3"
"644.0999999977648","f","2","1","2","5","8","67","13","0","0","0","3"
"1095.4000000022352","f","2","1","2","6","30","51","48","0","0","0","3"
"312.5","f","2","1","2","7","26","78","0","0","0","0","3"
"428.70000000298023","d","3","1","0","8","13","89","76","0","0","0","3"
"272.1000000014901","f","2","1","2","9","42","98","45","0","0","0","3"
"617.6999999992549","d","2","1","2","10","30","85","97","0","0","0","3"
"571.3000000007451","d","4","1","1","11","1","19","56","0","0","0","3"
"457.30000000074506","f","2","1","2","12","81","44","38","0","0","0","3"
"353.6000000014901","f","3","1","0","13","94","1","21","0","0","0","3"
"516.2999999970198","f","4","1","1","14","66","57","94","0","0","0","3"
"627.8999999985099","f","2","1","2","15","12","20","38","0","0","0","3"
"488.69999999925494","f","4","1","1","16","96","87","20","0","0","0","3"
"235.40000000223517","d","3","1","0","17","96","61","93","0","0","0","3"
"651.6000000014901","d","2","1","2","18","16","63","24","0","0","0","3"
"327.5","f","2","1","2","19","47","74","33","0","0","0","3"
"454.19999999925494","d","2","1","2","20","62","65","2","0","0","0","3"
"3019.60000000149","j","3","0","0","21","92","27","48","0","0","0","3"
"829.5999999977648","k","3","0","0","22","7","11","61","0","0","1","3"
"1075.5999999977648","k","3","0","0","23","73","15","79","0","0","1","3"
"1559","j","3","0","0","24","58","19","13","1","0","0","3"
"1767.699999999255","k","3","0","0","25","27","31","43","1","0","1","3"
"1239.8999999985099","k","3","0","0","26","24","12","26","0","0","1","3"
"1171.4000000022352","k","3","0","0","27","49","96","51","1","0","1","3"
"1827.6000000014901","k","3","0","0","28","52","37","11","0","0","1","3"
"2286.699999999255","j","3","0","0","29","40","43","65","1","0","0","3"
"944","k","0","0","-1","30","41","52","92","1","0","0","3"
"1008.5","k","3","0","0","31","48","37","20","0","0","1","3"
"1035.199999999255","j","3","0","0","32","25","34","34","1","0","0","3"
"1130.5","j","3","0","0","33","59","74","68","0","0","0","3"
"886.6999999992549","j","3","0","0","34","76","25","72","1","0","0","3"
"1054","k","3","0","0","35","18","0","8","0","0","1","3"
"1370.800000000745","j","3","0","0","36","82","79","18","1","0","0","3"
"1210.199999999255","j","3","0","0","37","30","34","56","0","0","0","3"
"1141.699999999255","k","3","0","0","38","15","83","76","1","0","1","3"
"1044.5999999977648","j","3","0","0","39","25","96","56","1","0","0","3"
"1023.5","k","3","0","0","40","73","92","97","1","0","1","3"
"14987.300000000745","","","","","","","","","","","",""
"2649.300000000745","","","","","","","","","","","",""
"1945.199999999255","j","0","0","-1","43","41","4","79","0","0","1","3"
"1715.3999999985099","d","2","1","2","44","38","48","2","0","0","0","3"
"1227.800000000745","j","3","0","0","45","26","57","62","0","0","0","3"
"1082.800000000745","k","3","0","0","46","19","28","60","1","0","1","3"
"699.3000000007451","d","2","1","2","47","50","58","68","1","0","0","3"
"937.6000000014901","k","3","0","0","48","7","32","88","0","0","1","3"
"962.1999999992549","k","3","0","0","49","84","71","38","1","0","1","3"
"756.5","k","3","0","0","50","51","69","11","1","0","1","3"
"677.3000000007451","d","2","1","2","51","23","15","24","0","0","1","3"
"618.5","d","2","1","2","52","79","74","71","0","0","0","3"
"859.7000000029802","f","2","1","2","53","63","25","8","1","0","1","3"
"1370.800000000745","j","3","0","0","54","62","19","46","0","0","0","3"
"960.1999999992549","j","3","0","0","55","55","66","77","0","0","0","3"
"1053.3999999985099","f","3","1","0","56","1","28","4","1","0","0","3"
"756.8000000007451","f","2","1","2","57","50","49","11","1","0","1","3"
"775.6999999992549","f","3","1","0","58","68","51","35","1","0","0","3"
"1376.199999999255","j","3","0","0","59","16","50","58","0","0","0","3"
"965.3000000007451","k","3","0","0","60","67","75","97","1","0","1","3"
"830.1999999992549","f","2","1","2","61","89","55","46","1","0","0","3"
"701.3000000007451","f","3","1","0","62","31","56","77","0","0","1","3"
"null","null","-1","1","-1","63","33","23","92","1","1","1","3"
"831.8999999985099","j","3","0","0","64","23","11","78","0","1","0","3"
"562.6000000014901","f","2","1","2","65","77","39","5","1","1","1","3"
"1130.0999999977648","d","2","1","2","66","35","47","61","1","1","0","3"
"1361.800000000745","j","3","0","0","67","63","29","53","1","1","0","3"
"806.5","f","4","1","1","68","92","19","72","0","1","1","3"
"1395.5999999977648","f","2","1","2","69","26","90","74","0","1","0","3"
"1033.9000000022352","f","2","1","2","70","38","33","82","0","1","0","3"
"1034.5","j","3","0","0","71","87","93","88","0","1","0","3"
"1068.8999999985099","j","0","0","-1","72","67","53","14","1","1","1","3"
"1507.300000000745","k","3","0","0","73","94","62","25","1","1","1","3"
"914","f","2","1","2","74","55","65","53","0","1","1","3"
"660.2000000029802","f","4","1","1","75","3","18","7","0","1","0","3"
"1147.8999999985099","j","3","0","0","76","16","91","46","0","1","0","3"
"664.8000000007451","f","3","1","0","77","19","94","55","0","1","1","3"
"985.6999999992549","j","3","0","0","78","28","13","19","1","1","0","3"
"1071.0999999977648","d","2","1","2","79","75","57","40","1","1","0","3"
"1355.699999999255","k","3","0","0","80","26","96","59","0","1","1","3"
"1322.6000000014901","k","3","0","0","81","15","13","24","1","1","1","3"
"1370.800000000745","k","3","0","0","82","50","29","27","1","1","1","3"
"1407.8999999985099","f","2","1","2","83","26","7","22","0","2","1","3"
"1246.800000000745","k","3","0","0","84","2","35","51","1","2","1","3"
"1027.5","j","3","0","0","85","67","7","23","0","2","0","3"
"933.6000000014901","d","2","1","2","86","97","20","58","0","2","0","3"
"898.7000000029802","f","2","1","2","87","85","87","68","1","2","0","3"
"645.8000000007451","f","2","1","2","88","40","80","66","0","2","0","3"
"1135","j","3","0","0","89","78","50","80","0","2","0","3"
"766.8000000007451","j","3","0","0","90","36","50","96","1","2","0","3"
"1071.3999999985099","d","2","1","2","91","96","42","27","1","2","0","3"
"761.9000000022352","f","3","1","0","92","40","79","91","0","2","0","3"
"781.5","j","0","0","-1","93","21","71","24","1","2","1","3"
"1616.1000000014901","k","3","0","0","94","4","80","73","1","2","1","3"
"816.0999999977648","f","4","1","1","95","7","75","34","1","2","1","3"
"null","null","-1","1","-1","96","83","56","11","0","2","0","3"
"508.5999999977648","d","4","1","1","97","19","29","61","1","2","1","3"
"822.3000000007451","f","2","1","2","98","69","47","74","1","2","1","3"
"1153.8999999985099","k","3","0","0","99","34","42","15","0","2","1","3"
"1143.6000000014901","k","3","0","0","100","30","20","62","0","2","1","3"
"1769.3999999985099","k","0","0","-1","101","87","62","54","1","2","0","3"
"1199.7000000029802","k","3","0","0","102","75","12","27","0","2","1","3"
"1216.9000000022352","j","3","0","0","103","90","51","89","1","3","0","3"
"805.8999999985099","f","3","1","0","104","98","54","97","0","3","0","3"
"1083.0999999977648","j","3","0","0","105","24","82","3","0","3","0","3"
"699.8999999985099","f","2","1","2","106","63","76","26","0","3","0","3"
"1225.300000000745","j","3","0","0","107","46","68","18","0","3","0","3"
"727","k","3","0","0","108","23","71","61","1","3","1","3"
"1190.9000000022352","j","3","0","0","109","31","47","40","0","3","0","3"
"1057.699999999255","f","3","1","0","110","54","48","70","0","3","0","3"
"1363.199999999255","d","2","1","2","111","71","90","54","1","3","0","3"
"762","d","2","1","2","112","6","28","1","1","3","0","3"
"1131.1000000014901","j","0","0","-1","113","53","97","17","0","3","1","3"
"686.5","d","2","1","2","114","14","97","84","1","3","1","3"
"1128.300000000745","k","3","0","0","115","34","18","49","0","3","1","3"
"1662.0999999977648","k","3","0","0","116","45","97","74","1","3","1","3"
"722.6999999992549","d","4","1","1","117","9","65","25","1","3","0","3"
"1122.7000000029802","k","3","0","0","118","88","21","55","1","3","1","3"
"1804.5","d","3","1","0","119","89","37","88","1","3","1","3"
"967.3000000007451","d","3","1","0","120","31","42","13","1","3","1","3"
"1766.8999999985099","f","4","1","1","121","38","89","4","0","3","1","3"
"null","null","-1","0","-1","122","81","29","9","0","3","1","3"
"1417.1000000014901","d","2","1","2","123","37","75","26","0","4","0","3"
"1404.5","k","3","0","0","124","16","43","87","1","4","1","3"
"1421","f","3","1","0","125","79","53","29","1","4","0","3"
"1209.2999999970198","j","3","0","0","126","97","42","31","1","4","0","3"
"1168.9000000022352","f","4","1","1","127","11","61","98","0","4","1","3"
"1247.800000000745","k","3","0","0","128","63","53","79","1","4","1","3"
"1321","j","3","0","0","129","12","32","31","1","4","0","3"
"831.3999999985099","j","3","0","0","130","89","12","84","1","4","0","3"
"1433","f","3","1","0","131","57","83","55","0","4","1","3"
"1316.800000000745","d","2","1","2","132","8","2","77","0","4","1","3"
"1013.8000000007451","f","3","1","0","133","28","70","56","0","4","0","3"
"755.3999999985099","d","2","1","2","134","95","2","98","0","4","1","3"
"1536.1000000014901","j","3","0","0","135","16","17","62","0","4","0","3"
"1404.5","d","2","1","2","136","79","22","72","1","4","0","3"
"836.8999999985099","k","3","0","0","137","49","21","92","0","4","1","3"
"941.5","k","3","0","0","138","19","52","73","1","4","1","3"
"1161.9000000022352","f","3","1","0","139","55","83","61","1","4","1","3"
"803.3999999985099","j","3","0","0","140","21","29","90","1","4","0","3"
"1146.1000000014901","k","3","0","0","141","98","78","73","0","4","1","3"
"1710.199999999255","f","2","1","2","142","3","36","13","0","4","0","3"
"1441.9000000022352","d","4","1","1","143","99","39","15","1","5","1","3"
"975.5","j","3","0","0","144","81","33","7","0","5","0","3"
"948.7000000029802","j","3","0","0","145","88","39","30","0","5","0","3"
"922.3000000007451","k","3","0","0","146","99","98","38","1","5","1","3"
"884.5999999977648","j","3","0","0","147","61","37","2","0","5","0","3"
"1531.699999999255","f","3","1","0","148","61","19","62","0","5","1","3"
"963.7000000029802","f","2","1","2","149","42","62","43","0","5","1","3"
"1136","d","3","1","0","150","88","25","44","1","5","1","3"
"1164.6000000014901","j","3","0","0","151","90","1","71","0","5","0","3"
"1466.199999999255","k","3","0","0","152","98","70","53","0","5","1","3"
"1219.4000000022352","d","3","1","0","153","62","3","25","0","5","0","3"
"1068.9000000022352","j","3","0","0","154","92","35","37","1","5","0","3"
"1233.699999999255","j","3","0","0","155","39","76","89","1","5","0","3"
"1128.3999999985099","d","2","1","2","156","54","86","59","0","5","1","3"
"1103.699999999255","d","2","1","2","157","79","28","30","1","5","0","3"
"1345.5","k","3","0","0","158","40","51","79","0","5","1","3"
"889.8999999985099","d","2","1","2","159","55","1","6","1","5","0","3"
"441.6000000014901","f","3","1","0","160","28","72","80","1","5","0","3"
"983.1999999992549","k","3","0","0","161","59","39","65","1","5","1","3"
"1153.3999999985099","d","3","1","0","162","49","45","6","1","5","1","3"
"1038","f","2","1","2","163","49","67","73","0","6","0","3"
"1374.5","f","2","1","2","164","2","97","82","1","6","0","3"
"1076.5","k","3","0","0","165","78","24","26","0","6","1","3"
"1105.800000000745","d","4","1","1","166","66","8","80","1","6","0","3"
"1179.3999999985099","j","3","0","0","167","70","6","83","0","6","0","3"
"1077.4000000022352","k","3","0","0","168","70","37","45","1","6","1","3"
"902.4000000022352","k","3","0","0","169","4","71","78","0","6","1","3"
"1217","d","2","1","2","170","70","18","26","0","6","1","3"
"703.1999999992549","k","0","0","-1","171","55","39","13","1","6","0","3"
"815.6999999992549","j","3","0","0","172","61","32","66","1","6","0","3"
"1492.199999999255","f","2","1","2","173","4","52","29","1","6","1","3"
"1055.9000000022352","d","3","1","0","174","67","13","92","0","6","1","3"
"1470","k","3","0","0","175","91","55","53","1","6","1","3"
"980.5999999977648","d","4","1","1","176","32","0","20","1","6","0","3"
"1197.9000000022352","j","3","0","0","177","18","74","37","0","6","0","3"
"1416.1000000014901","f","3","1","0","178","94","17","64","0","6","1","3"
"840.2000000029802","j","3","0","0","179","39","82","30","1","6","0","3"
"1043.5","d","4","1","1","180","10","96","12","0","6","1","3"
"1083.800000000745","d","2","1","2","181","67","7","98","1","6","1","3"
"938.6999999992549","j","3","0","0","182","26","42","49","0","6","0","3"
"935.5","j","3","0","0","183","78","87","12","0","7","0","3"
"1320.300000000745","j","3","0","0","184","22","36","24","1","7","0","3"
"854","d","2","1","2","185","13","35","81","1","7","0","3"
"892.2000000029802","j","3","0","0","186","4","6","57","1","7","0","3"
"980.7000000029802","f","3","1","0","187","58","53","74","0","7","1","3"
"857.9000000022352","j","3","0","0","188","29","47","24","0","7","0","3"
"972.0999999977648","d","2","1","2","189","24","95","33","0","7","1","3"
"917.1999999992549","j","3","0","0","190","59","11","63","0","7","0","3"
"981.8000000007451","k","3","0","0","191","26","85","22","0","7","1","3"
"915.9000000022352","d","3","1","0","192","17","6","75","1","7","1","3"
"876.5","d","3","1","0","193","74","90","68","0","7","1","3"
"1209.199999999255","d","3","1","0","194","48","83","98","0","7","0","3"
"1008.1999999992549","d","2","1","2","195","15","27","6","1","7","1","3"
"882.3000000007451","j","3","0","0","196","84","4","2","0","7","0","3"
"1192.2999999970198","f","3","1","0","197","4","84","39","1","7","1","3"
"998.0999999977648","d","2","1","2","198","46","9","69","1","7","0","3"
"1098.2000000029802","k","3","0","0","199","75","96","83","0","7","1","3"
"1054","f","4","1","1","200","28","96","59","1","7","0","3"
"1762","j","0","0","-1","201","38","48","26","1","7","1","3"
"1070.800000000745","k","3","0","0","202","75","21","37","1","7","1","3"
"1730.199999999255","k","3","0","0","203","24","55","26","1","8","1","3"
"1641.3999999985099","d","3","1","0","204","69","65","44","0","8","0","3"
"438.8999999985099","f","2","1","2","205","86","8","48","0","8","0","3"
"1133.0999999977648","d","3","1","0","206","66","62","58","1","8","1","3"
"831.5999999977648","j","3","0","0","207","3","88","6","1","8","0","3"
"1532.699999999255","d","4","1","1","208","15","48","67","0","8","1","3"
"1024.699999999255","d","2","1","2","209","41","68","97","0","8","0","3"
"1255.5","f","2","1","2","210","83","94","44","1","8","0","3"
"903.4000000022352","j","3","0","0","211","86","76","73","1","8","0","3"
"1510.699999999255","k","0","0","-1","212","52","50","34","0","8","0","3"
"782.0999999977648","k","3","0","0","213","1","56","90","1","8","1","3"
"901.6000000014901","j","3","0","0","214","82","76","25","0","8","0","3"
"1251.199999999255","d","2","1","2","215","27","30","2","0","8","1","3"
"840.4000000022352","j","3","0","0","216","15","63","35","0","8","0","3"
"1035.199999999255","j","3","0","0","217","87","23","78","1","8","0","3"
"988.3999999985099","d","4","1","1","218","9","64","11","1","8","1","3"
"1717.2000000029802","f","2","1","2","219","5","67","60","0","8","1","3"
"941.3000000007451","f","3","1","0","220","90","36","14","1","8","1","3"
"1218.6000000014901","k","3","0","0","221","82","72","11","1","8","1","3"
"882.2999999970198","k","3","0","0","222","95","25","76","0","8","1","3"
"1055","d","3","1","0","223","57","71","97","1","9","0","3"
"1129.199999999255","f","2","1","2","224","65","74","18","0","9","1","3"
"782.8000000007451","j","3","0","0","225","38","66","32","1","9","0","3"
"1461.4000000022352","j","3","0","0","226","15","23","70","1","9","0","3"
"1027.8999999985099","f","2","1","2","227","38","45","85","0","9","1","3"
"1128.9000000022352","k","3","0","0","228","13","54","27","1","9","1","3"
"1664.9000000022352","d","4","1","1","229","1","40","43","0","9","0","3"
"725.5","d","2","1","2","230","21","74","50","0","9","1","3"
"877.8999999985099","k","3","0","0","231","71","62","20","0","9","1","3"
"1372.1000000014901","k","3","0","0","232","49","6","85","1","9","1","3"
"699.1999999992549","j","3","0","0","233","76","56","51","1","9","0","3"
"924.6999999992549","f","2","1","2","234","73","26","43","1","9","0","3"
"872","d","4","1","1","235","99","34","89","1","9","0","3"
"977.3000000007451","d","3","1","0","236","57","8","15","0","9","1","3"
"1038.6000000014901","d","2","1","2","237","64","73","56","0","9","1","3"
"947.4000000022352","d","4","1","1","238","41","88","34","0","9","1","3"
"1010.5","j","3","0","0","239","87","10","62","0","9","0","3"
"835.8000000007451","k","3","0","0","240","52","24","60","1","9","1","3"
"769.3999999985099","j","3","0","0","241","96","59","70","1","9","0","3"
"734.2000000029802","j","3","0","0","242","62","77","54","0","9","0","3"
