"rt","key_press","reward","type","marble","trial_num","stim_1","stim_2","new_stim","change_index","block","changed","marble_set"
"9044.199999988079","d","3","1","0","1","28","80","20","0","0","0","2"
"1110.5","d","2","1","1","2","78","25","37","0","0","0","2"
"1646","f","3","1","0","3","46","94","83","0","0","0","2"
"3386","f","2","1","1","4","44","2","92","0","0","0","2"
"3927.099999964237","f","2","1","1","5","87","34","21","0","0","0","2"
"750","d","4","1","2","6","15","73","41","0","0","0","2"
"862.3000000119209","f","2","1","1","7","46","60","3","0","0","0","2"
"681.4000000357628","f","3","1","0","8","58","13","68","0","0","0","2"
"505.7999999523163","d","2","1","1","9","91","25","92","0","0","0","2"
"1714.300000011921","d","2","1","1","10","54","45","2","0","0","0","2"
"1017.6999999880791","f","4","1","2","11","11","88","73","0","0","0","2"
"504","d","2","1","1","12","17","89","11","0","0","0","2"
"662.3000000119209","d","3","1","0","13","1","23","98","0","0","0","2"
"702.8999999761581","d","4","1","2","14","96","86","25","0","0","0","2"
"3.699999988079071","d","2","1","1","15","34","86","55","0","0","0","2"
"940.1999999880791","f","4","1","2","16","44","35","18","0","0","0","2"
"51","d","4","1","2","17","22","47","71","0","0","0","2"
"932.4000000357628","d","2","1","1","18","30","37","23","0","0","0","2"
"564.3000000119209","f","3","1","0","19","91","65","88","0","0","0","2"
"454.7999999523163","f","3","1","0","20","59","98","17","0","0","0","2"
"4608.299999952316","j","3","0","0","21","32","83","27","0","0","0","2"
"6502.5","k","3","0","0","22","52","15","21","0","0","1","2"
"2122.899999976158","k","3","0","0","23","16","28","36","1","0","1","2"
"3812.699999988079","j","3","0","0","24","85","94","46","0","0","0","2"
"2263.5","k","3","0","0","25","37","47","83","0","0","1","2"
"2397.800000011921","k","3","0","0","26","28","9","56","1","0","1","2"
"2981.600000023842","k","0","0","-1","27","70","84","75","1","0","0","2"
"2043","k","3","0","0","28","89","80","15","1","0","1","2"
"1527.800000011921","k","0","0","-1","29","1","70","78","1","0","0","2"
"1623.1000000238419","k","3","0","0","30","95","10","73","1","0","1","2"
"1659.6000000238419","k","0","0","-1","31","9","43","14","1","0","0","2"
"1798.7999999523163","j","3","0","0","32","36","92","14","0","0","0","2"
"1888.2000000476837","j","3","0","0","33","10","21","50","0","0","0","2"
"2024.7999999523163","k","3","0","0","34","85","83","30","0","0","1","2"
"1729.699999988079","k","3","0","0","35","99","15","39","0","0","1","2"
"1605.7999999523163","j","3","0","0","36","37","68","5","1","0","0","2"
"2623.099999964237","k","3","0","0","37","67","72","65","0","0","1","2"
"1687.300000011921","j","3","0","0","38","25","54","52","1","0","0","2"
"1791.800000011921","k","3","0","0","39","61","42","25","0","0","1","2"
"1363.4000000357628","j","3","0","0","40","43","58","71","1","0","0","2"
"7613.599999964237","","","","","","","","","","","",""
"7105.299999952316","","","","","","","","","","","",""
"null","null","-1","1","-1","43","64","62","22","1","0","0","2"
"null","null","-1","0","-1","44","24","71","29","1","0","1","2"
"null","null","-1","0","-1","45","20","8","3","1","0","1","2"
"870.8000000119209","d","3","1","0","46","14","52","25","0","0","0","2"
"null","null","-1","0","-1","47","46","28","88","0","0","0","2"
"743","k","0","0","-1","48","3","37","96","1","0","0","2"
"950.6999999880791","j","0","0","-1","49","54","91","43","0","0","1","2"
"599.7999999523163","d","2","1","1","50","25","14","1","0","0","0","2"
"640","k","0","0","-1","51","51","97","84","1","0","0","2"
"628.8999999761581","d","2","1","1","52","48","70","32","0","0","1","2"
"646.1999999880791","d","2","1","1","53","50","98","52","1","0","1","2"
"629","d","2","1","1","54","23","10","76","1","0","0","2"
"1339.5999999642372","j","3","0","0","55","99","53","25","1","0","0","2"
"946.6999999880791","f","2","1","1","56","95","27","82","0","0","1","2"
"1043.4000000357628","k","3","0","0","57","89","69","30","1","0","1","2"
"555.8000000119209","d","2","1","1","58","18","44","69","0","0","0","2"
"701.8000000119209","d","2","1","1","59","98","52","97","0","0","1","2"
"null","null","-1","0","-1","60","53","64","34","0","0","1","2"
"1929.5","k","3","0","0","61","53","19","9","0","0","1","2"
"733.5","f","4","1","2","62","34","92","63","1","0","0","2"
"553.0999999642372","f","3","1","0","63","96","5","94","1","1","1","2"
"1265.6000000238419","j","3","0","0","64","86","70","14","0","1","0","2"
"503.19999998807907","d","2","1","1","65","63","33","79","1","1","0","2"
"1042.300000011921","k","0","0","-1","66","3","49","49","0","1","0","2"
"507","f","2","1","1","67","44","84","68","1","1","1","2"
"1090.1000000238419","k","3","0","0","68","5","59","29","0","1","1","2"
"676.8000000119209","k","3","0","0","69","92","31","10","1","1","1","2"
"427.69999998807907","d","2","1","1","70","10","61","79","1","1","0","2"
"727.6999999880791","d","3","1","0","71","10","90","67","1","1","1","2"
"576.6999999880791","d","2","1","1","72","2","52","80","1","1","0","2"
"882.1000000238419","f","3","1","0","73","91","36","43","0","1","0","2"
"1048.6000000238419","j","3","0","0","74","91","42","12","0","1","0","2"
"1075.8999999761581","j","3","0","0","75","10","6","97","0","1","0","2"
"1284.300000011921","k","3","0","0","76","8","39","70","0","1","1","2"
"489.39999997615814","d","2","1","1","77","19","24","58","1","1","1","2"
"912.1000000238419","k","3","0","0","78","13","81","79","1","1","1","2"
"728.3000000119209","d","2","1","1","79","70","80","90","0","1","1","2"
"905.1000000238419","j","0","0","-1","80","83","87","59","0","1","1","2"
"970.4000000357628","k","0","0","-1","81","47","16","60","1","1","0","2"
"617.3000000119209","d","3","1","0","82","6","26","57","0","1","0","2"
"656.3000000119209","f","2","1","1","83","1","67","58","1","2","0","2"
"871.1999999880791","k","0","0","-1","84","4","15","78","1","2","0","2"
"1044.699999988079","k","3","0","0","85","33","47","90","0","2","1","2"
"584.8999999761581","f","2","1","1","86","22","92","37","1","2","0","2"
"734.0999999642372","d","2","1","1","87","89","66","50","1","2","1","2"
"855.3999999761581","j","3","0","0","88","15","90","5","0","2","0","2"
"753.5","f","2","1","1","89","3","32","66","1","2","0","2"
"759.0999999642372","f","2","1","1","90","73","91","16","1","2","1","2"
"625.6999999880791","d","3","1","0","91","88","50","57","1","2","1","2"
"779.6999999880791","d","2","1","1","92","68","29","88","0","2","1","2"
"1127.8999999761581","k","0","0","-1","93","9","3","34","0","2","0","2"
"704.3999999761581","j","0","0","-1","94","45","34","81","0","2","1","2"
"943.0999999642372","f","4","1","2","95","53","42","51","1","2","0","2"
"1089.699999988079","j","3","0","0","96","41","73","3","0","2","0","2"
"1210.1000000238419","j","3","0","0","97","72","26","73","1","2","0","2"
"1119.5","j","0","0","-1","98","67","1","87","0","2","1","2"
"915.8000000119209","k","3","0","0","99","41","15","85","0","2","1","2"
"499","d","2","1","1","100","9","23","54","0","2","1","2"
"876.1999999880791","f","4","1","2","101","91","70","86","1","2","1","2"
"1073.4000000357628","j","3","0","0","102","72","85","2","0","2","0","2"
"788.9000000357628","f","4","1","2","103","48","59","43","1","3","0","2"
"846.9000000357628","f","2","1","1","104","15","31","54","0","3","0","2"
"835.3999999761581","f","2","1","1","105","81","87","38","0","3","1","2"
"789.8999999761581","d","2","1","1","106","21","55","39","1","3","0","2"
"804.6999999880791","f","3","1","0","107","21","25","76","1","3","0","2"
"1273.300000011921","k","0","0","-1","108","78","86","77","1","3","0","2"
"1070.0999999642372","j","0","0","-1","109","42","72","76","0","3","1","2"
"827.8999999761581","f","2","1","1","110","76","25","13","0","3","1","2"
"1802","f","3","1","0","111","27","89","46","0","3","1","2"
"820.5","f","2","1","1","112","1","14","31","0","3","1","2"
"775.1999999880791","k","0","0","-1","113","95","12","89","1","3","0","2"
"752.1000000238419","j","0","0","-1","114","71","13","76","0","3","1","2"
"796","k","3","0","0","115","9","2","22","0","3","1","2"
"1078.800000011921","j","3","0","0","116","55","17","20","0","3","0","2"
"757.1000000238419","d","3","1","0","117","1","65","96","1","3","1","2"
"861.3000000119209","d","4","1","2","118","89","69","2","1","3","0","2"
"927.1000000238419","k","3","0","0","119","96","77","50","1","3","1","2"
"895.9000000357628","j","0","0","-1","120","90","31","5","1","3","1","2"
"1058.4000000357628","j","3","0","0","121","81","13","19","0","3","0","2"
"1085.5999999642372","j","3","0","0","122","80","47","77","1","3","0","2"
"666.3999999761581","d","3","1","0","123","78","2","85","0","4","1","2"
"902","f","3","1","0","124","91","45","85","1","4","1","2"
"787","f","2","1","1","125","86","18","16","1","4","0","2"
"1828.7000000476837","j","0","0","-1","126","74","57","64","0","4","1","2"
"1126","k","0","0","-1","127","74","96","98","0","4","0","2"
"658.3000000119209","d","4","1","2","128","23","44","14","1","4","0","2"
"808.1000000238419","d","2","1","1","129","27","21","67","1","4","0","2"
"790.2999999523163","f","2","1","1","130","31","64","46","0","4","1","2"
"1073.9000000357628","k","3","0","0","131","72","82","62","0","4","1","2"
"1017.1000000238419","k","3","0","0","132","48","89","74","1","4","1","2"
"1302.699999988079","j","3","0","0","133","36","53","95","1","4","0","2"
"617","f","2","1","1","134","46","66","20","1","4","1","2"
"1220.8999999761581","k","0","0","-1","135","49","6","57","0","4","0","2"
"1018.9000000357628","j","3","0","0","136","81","78","19","1","4","0","2"
"715.6000000238419","f","4","1","2","137","79","2","61","0","4","0","2"
"1025","k","3","0","0","138","71","18","6","0","4","1","2"
"983.6999999880791","k","3","0","0","139","45","98","93","1","4","1","2"
"930.7000000476837","f","2","1","1","140","74","0","57","0","4","0","2"
"1145","f","4","1","2","141","75","40","3","1","4","1","2"
"1032.800000011921","k","0","0","-1","142","97","81","57","0","4","0","2"
"744.2000000476837","f","4","1","2","143","76","42","71","0","5","1","2"
"931.3999999761581","k","0","0","-1","144","97","7","23","0","5","0","2"
"699.5999999642372","d","2","1","1","145","80","16","34","1","5","1","2"
"637.6000000238419","d","4","1","2","146","22","38","65","0","5","1","2"
"964.1999999880791","k","3","0","0","147","40","3","93","1","5","1","2"
"709","d","4","1","2","148","77","33","68","0","5","0","2"
"1129.699999988079","j","3","0","0","149","4","77","52","1","5","0","2"
"658.5","d","2","1","1","150","31","84","64","0","5","1","2"
"831.5","f","2","1","1","151","84","73","41","1","5","1","2"
"708.5","d","4","1","2","152","63","83","40","1","5","1","2"
"1032.8999999761581","f","2","1","1","153","54","52","0","1","5","0","2"
"911.5","d","2","1","1","154","34","48","39","0","5","1","2"
"914.8000000119209","k","3","0","0","155","13","44","56","0","5","1","2"
"830.5999999642372","f","4","1","2","156","74","6","29","1","5","0","2"
"950.7000000476837","j","3","0","0","157","80","28","59","1","5","0","2"
"1120.800000011921","j","3","0","0","158","23","55","54","1","5","0","2"
"1114.300000011921","j","3","0","0","159","21","6","69","1","5","0","2"
"968.4000000357628","j","3","0","0","160","70","51","33","0","5","0","2"
"866.5","j","3","0","0","161","17","71","75","0","5","0","2"
"791.1000000238419","k","3","0","0","162","82","69","75","0","5","1","2"
"1092.5","k","0","0","-1","163","53","94","45","1","6","0","2"
"633.1000000238419","f","2","1","1","164","80","40","70","0","6","1","2"
"1079.4000000357628","k","0","0","-1","165","87","58","52","0","6","0","2"
"1084.199999988079","d","3","1","0","166","1","85","51","1","6","1","2"
"null","null","-1","0","-1","167","97","10","17","1","6","0","2"
"null","null","-1","0","-1","168","63","73","43","1","6","1","2"
"853.8000000119209","f","3","1","0","169","66","51","22","0","6","1","2"
"912.4000000357628","f","2","1","1","170","98","96","18","1","6","1","2"
"853.3999999761581","d","2","1","1","171","1","47","17","0","6","0","2"
"1129.300000011921","k","3","0","0","172","80","18","96","0","6","1","2"
"870.6999999880791","k","3","0","0","173","79","93","85","0","6","1","2"
"660.8000000119209","f","2","1","1","174","51","38","96","1","6","1","2"
"919.8999999761581","k","3","0","0","175","97","42","40","1","6","1","2"
"966.3999999761581","f","4","1","2","176","92","1","47","1","6","0","2"
"574.2999999523163","f","3","1","0","177","45","32","65","0","6","0","2"
"1221.4000000357628","d","3","1","0","178","87","77","81","1","6","0","2"
"1047.5","j","3","0","0","179","24","52","79","1","6","0","2"
"963.2000000476837","j","3","0","0","180","2","89","96","0","6","0","2"
"827.8000000119209","j","3","0","0","181","60","84","91","0","6","0","2"
"947.1999999880791","d","3","1","0","182","34","72","64","0","6","1","2"
"800.8999999761581","k","3","0","0","183","65","96","37","1","7","1","2"
"1064.3999999761581","k","3","0","0","184","66","31","59","1","7","1","2"
"704.8999999761581","d","2","1","1","185","70","3","46","1","7","0","2"
"901.3000000119209","k","3","0","0","186","44","91","49","0","7","1","2"
"717.0999999642372","d","2","1","1","187","36","82","65","1","7","0","2"
"1071.4000000357628","j","0","0","-1","188","93","98","98","0","7","1","2"
"923.2999999523163","f","2","1","1","189","84","76","15","1","7","1","2"
"975.8000000119209","j","3","0","0","190","80","76","57","0","7","0","2"
"787.3000000119209","f","4","1","2","191","56","59","68","0","7","0","2"
"1135.7000000476837","d","3","1","0","192","8","65","32","1","7","0","2"
"906.4000000357628","k","3","0","0","193","34","87","20","1","7","1","2"
"877.4000000357628","d","2","1","1","194","48","77","95","1","7","0","2"
"676.2999999523163","k","3","0","0","195","89","23","18","1","7","1","2"
"860.3000000119209","d","3","1","0","196","60","11","21","0","7","1","2"
"852.1999999880791","k","3","0","0","197","64","8","42","0","7","1","2"
"1192.2999999523163","j","3","0","0","198","96","76","5","0","7","0","2"
"846.6000000238419","d","3","1","0","199","67","46","43","1","7","0","2"
"778.3999999761581","k","3","0","0","200","29","11","94","0","7","1","2"
"601","d","2","1","1","201","65","68","40","0","7","0","2"
"843.5","f","2","1","1","202","61","19","46","0","7","0","2"
"806.2000000476837","k","0","0","-1","203","61","22","94","1","8","0","2"
"823.7000000476837","d","3","1","0","204","57","45","61","1","8","1","2"
"1059.8999999761581","k","3","0","0","205","90","52","15","1","8","1","2"
"1047.3999999761581","k","3","0","0","206","96","6","87","0","8","1","2"
"995","k","0","0","-1","207","30","19","91","0","8","0","2"
"798.4000000357628","f","4","1","2","208","86","50","66","1","8","1","2"
"545.8999999761581","f","3","1","0","209","90","52","81","0","8","0","2"
"765.3000000119209","d","2","1","1","210","56","84","26","0","8","0","2"
"682.1000000238419","f","2","1","1","211","82","9","75","1","8","1","2"
"790.1999999880791","k","3","0","0","212","26","56","7","1","8","1","2"
"838.5","k","0","0","-1","213","78","70","5","0","8","0","2"
"779.0999999642372","k","3","0","0","214","9","23","52","0","8","1","2"
"881.8999999761581","j","3","0","0","215","88","94","3","0","8","0","2"
"622.6000000238419","f","2","1","1","216","16","67","2","0","8","0","2"
"857","d","2","1","1","217","3","93","53","1","8","0","2"
"1084.300000011921","k","3","0","0","218","21","57","87","1","8","1","2"
"855.6999999880791","d","2","1","1","219","25","96","64","1","8","0","2"
"904.0999999642372","f","3","1","0","220","35","93","71","1","8","1","2"
"826.0999999642372","f","4","1","2","221","4","87","45","0","8","0","2"
"877.9000000357628","k","3","0","0","222","32","14","16","0","8","1","2"
"670.2000000476837","k","3","0","0","223","13","21","8","1","9","1","2"
"693.1999999880791","d","3","1","0","224","62","92","61","0","9","0","2"
"1140.4000000357628","k","3","0","0","225","99","27","67","0","9","1","2"
"1026.8999999761581","k","3","0","0","226","46","12","88","0","9","1","2"
"581.1999999880791","d","2","1","1","227","14","33","15","0","9","0","2"
"1057.8999999761581","k","3","0","0","228","28","56","63","1","9","1","2"
"759.5","d","3","1","0","229","63","26","40","1","9","1","2"
"1038.5","k","3","0","0","230","7","94","88","1","9","1","2"
"698.6999999880791","d","2","1","1","231","87","45","13","0","9","0","2"
"885.6999999880791","d","4","1","2","232","95","33","60","1","9","0","2"
"1598.699999988079","d","3","1","0","233","47","38","57","0","9","1","2"
"983.1999999880791","k","0","0","-1","234","27","48","1","1","9","0","2"
"643","d","2","1","1","235","23","24","36","1","9","0","2"
"958.1999999880791","d","3","1","0","236","42","35","66","1","9","0","2"
"999.7999999523163","k","3","0","0","237","46","57","73","0","9","1","2"
"971.3000000119209","k","3","0","0","238","32","5","84","1","9","1","2"
"1074","j","3","0","0","239","10","29","3","0","9","0","2"
"833.8999999761581","k","0","0","-1","240","54","17","85","0","9","0","2"
"830.8000000119209","d","2","1","1","241","84","46","77","0","9","1","2"
"568.4000000357628","f","2","1","1","242","36","79","83","1","9","0","2"
