"rt","key_press","reward","type","marble","trial_num","stim_1","stim_2","new_stim","change_index","block","changed","marble_set"
"10178","d","2","1","1","1","95","74","51","0","0","0","2"
"2457","f","3","1","0","2","29","20","83","0","0","0","2"
"1094","f","2","1","1","3","3","26","86","0","0","0","2"
"1226","d","2","1","1","4","93","42","51","0","0","0","2"
"2516","f","2","1","1","5","38","87","47","0","0","0","2"
"23","f","2","1","1","6","50","71","69","0","0","0","2"
"1391","f","2","1","1","7","90","11","12","0","0","0","2"
"58","f","3","1","0","8","73","47","97","0","0","0","2"
"1662","f","4","1","2","9","8","96","56","0","0","0","2"
"1187","d","2","1","1","10","59","27","31","0","0","0","2"
"1219","f","2","1","1","11","60","33","20","0","0","0","2"
"864","f","2","1","1","12","81","78","45","0","0","0","2"
"1422","f","2","1","1","13","4","40","68","0","0","0","2"
"1531","d","3","1","0","14","98","30","3","0","0","0","2"
"855","d","3","1","0","15","22","44","51","0","0","0","2"
"2193","d","2","1","1","16","89","15","26","0","0","0","2"
"1777","d","3","1","0","17","94","71","55","0","0","0","2"
"977","f","2","1","1","18","6","61","71","0","0","0","2"
"912","d","2","1","1","19","9","65","71","0","0","0","2"
"1460","d","2","1","1","20","9","26","22","0","0","0","2"
"10125","k","3","0","0","21","38","63","23","1","0","1","2"
"5781","j","0","0","-1","22","38","53","73","0","0","1","2"
"6235","j","3","0","0","23","94","85","51","1","0","0","2"
"3364","k","3","0","0","24","50","88","38","0","0","1","2"
"5747","k","0","0","-1","25","76","2","71","1","0","0","2"
"2520","k","3","0","0","26","37","9","92","0","0","1","2"
"6819","k","0","0","-1","27","78","67","82","0","0","0","2"
"2679","k","3","0","0","28","86","64","6","0","0","1","2"
"3085","j","0","0","-1","29","83","32","5","0","0","1","2"
"2825","k","0","0","-1","30","47","36","46","1","0","0","2"
"2889","k","3","0","0","31","77","43","13","1","0","1","2"
"2837","k","3","0","0","32","9","50","15","1","0","1","2"
"4195","j","3","0","0","33","52","23","92","0","0","0","2"
"4721","j","3","0","0","34","6","71","81","1","0","0","2"
"4421","k","3","0","0","35","55","38","33","1","0","1","2"
"2725","k","3","0","0","36","4","7","59","0","0","1","2"
"3277","k","0","0","-1","37","48","36","24","1","0","0","2"
"3684","j","3","0","0","38","2","67","5","1","0","0","2"
"3128","j","3","0","0","39","20","40","51","0","0","0","2"
"3912","j","3","0","0","40","9","49","82","0","0","0","2"
"11780","","","","","","","","","","","",""
"8018","","","","","","","","","","","",""
"null","null","-1","0","-1","43","27","63","96","0","0","0","2"
"null","null","-1","0","-1","44","30","52","5","0","0","1","2"
"null","null","-1","1","-1","45","57","89","93","0","0","0","2"
"1538","k","3","0","0","46","26","73","56","1","0","1","2"
"621","d","3","1","0","47","24","8","69","1","0","1","2"
"1853","f","3","1","0","48","20","84","29","1","0","1","2"
"1519","f","2","1","1","49","18","12","83","0","0","1","2"
"1052","d","2","1","1","50","88","27","55","0","0","0","2"
"null","null","-1","0","-1","51","99","22","66","0","0","1","2"
"1509","k","0","0","-1","52","94","67","27","1","0","0","2"
"1156","j","0","0","-1","53","78","82","3","1","0","1","2"
"1702","k","0","0","-1","54","53","25","66","0","0","0","2"
"1021","d","2","1","1","55","96","58","61","0","0","0","2"
"null","null","-1","0","-1","56","11","84","23","1","0","0","2"
"1541","f","2","1","1","57","46","36","35","1","0","0","2"
"1343","d","2","1","1","58","47","19","55","1","0","0","2"
"1342","f","2","1","1","59","90","79","37","1","0","0","2"
"null","null","-1","0","-1","60","4","82","27","1","0","1","2"
"1819","j","0","0","-1","61","42","65","27","0","0","1","2"
"1105","d","3","1","0","62","54","89","56","0","0","1","2"
"847","f","2","1","1","63","50","40","80","1","1","1","2"
"1663","j","0","0","-1","64","47","43","72","1","1","1","2"
"843","f","2","1","1","65","76","71","41","1","1","1","2"
"931","d","4","1","2","66","73","87","23","0","1","1","2"
"1397","j","3","0","0","67","8","48","48","0","1","0","2"
"1267","j","3","0","0","68","44","47","59","0","1","0","2"
"1069","j","3","0","0","69","25","7","5","0","1","0","2"
"1425","d","3","1","0","70","84","49","47","1","1","0","2"
"1169","d","2","1","1","71","24","96","22","1","1","0","2"
"null","null","-1","0","-1","72","39","29","36","0","1","0","2"
"1173","f","2","1","1","73","58","91","36","1","1","1","2"
"1109","j","0","0","-1","74","38","92","31","0","1","1","2"
"1390","k","0","0","-1","75","6","90","67","0","1","0","2"
"1438","d","2","1","1","76","47","67","90","1","1","0","2"
"1436","j","0","0","-1","77","25","64","52","0","1","1","2"
"1162","k","0","0","-1","78","39","72","27","1","1","0","2"
"1276","f","2","1","1","79","44","48","89","0","1","1","2"
"1223","d","2","1","1","80","85","42","23","1","1","0","2"
"1363","f","2","1","1","81","31","97","56","1","1","1","2"
"1344","j","0","0","-1","82","55","87","19","0","1","1","2"
"1183","d","4","1","2","83","43","77","56","0","2","0","2"
"null","null","-1","0","-1","84","57","83","27","0","2","1","2"
"1046","d","2","1","1","85","96","46","2","1","2","1","2"
"1162","f","2","1","1","86","6","95","15","0","2","0","2"
"1261","j","3","0","0","87","33","86","71","0","2","0","2"
"760","d","2","1","1","88","73","13","46","0","2","1","2"
"1186","j","3","0","0","89","97","24","39","0","2","0","2"
"1032","j","3","0","0","90","34","4","81","0","2","0","2"
"1150","k","3","0","0","91","46","78","48","1","2","1","2"
"1681","k","3","0","0","92","83","93","50","1","2","1","2"
"1407","j","0","0","-1","93","26","21","18","1","2","1","2"
"1114","f","2","1","1","94","55","86","15","0","2","0","2"
"1632","j","0","0","-1","95","34","46","77","1","2","1","2"
"1406","f","3","1","0","96","94","60","84","1","2","0","2"
"1800","d","2","1","1","97","20","70","88","1","2","0","2"
"1616","f","2","1","1","98","26","13","58","0","2","1","2"
"1250","d","2","1","1","99","86","55","65","1","2","1","2"
"1317","f","2","1","1","100","47","57","63","1","2","1","2"
"1060","k","0","0","-1","101","96","83","7","1","2","0","2"
"1216","j","3","0","0","102","62","24","50","0","2","0","2"
"1592","d","2","1","1","103","4","80","9","1","3","0","2"
"1055","f","2","1","1","104","83","59","37","0","3","1","2"
"1097","d","2","1","1","105","97","83","71","1","3","0","2"
"1426","k","3","0","0","106","52","51","94","1","3","1","2"
"1162","j","3","0","0","107","57","74","29","0","3","0","2"
"994","j","3","0","0","108","94","85","59","0","3","0","2"
"null","null","-1","0","-1","109","38","8","7","0","3","1","2"
"1391","f","2","1","1","110","9","92","46","1","3","1","2"
"1729","d","2","1","1","111","61","38","58","1","3","0","2"
"1278","f","2","1","1","112","26","60","55","0","3","0","2"
"1078","k","0","0","-1","113","35","36","51","1","3","0","2"
"1931","j","0","0","-1","114","39","43","38","1","3","1","2"
"1357","f","3","1","0","115","47","48","32","0","3","0","2"
"1393","j","3","0","0","116","72","83","43","0","3","0","2"
"1273","f","2","1","1","117","98","46","18","0","3","1","2"
"1187","j","0","0","-1","118","64","59","78","0","3","1","2"
"1453","k","3","0","0","119","81","93","42","1","3","1","2"
"1394","f","3","1","0","120","57","33","44","1","3","1","2"
"977","j","3","0","0","121","4","18","69","0","3","0","2"
"1275","f","3","1","0","122","4","18","86","1","3","1","2"
"1786","j","3","0","0","123","21","35","71","0","4","0","2"
"1252","f","2","1","1","124","19","25","50","0","4","1","2"
"null","null","-1","0","-1","125","77","10","44","0","4","0","2"
"1045","j","3","0","0","126","95","68","53","0","4","0","2"
"1262","f","2","1","1","127","92","66","43","1","4","1","2"
"1172","d","3","1","0","128","93","61","11","1","4","0","2"
"1123","f","4","1","2","129","48","14","57","1","4","1","2"
"1178","f","2","1","1","130","91","60","48","1","4","0","2"
"1501","d","3","1","0","131","62","71","71","0","4","1","2"
"1394","f","2","1","1","132","44","0","17","1","4","1","2"
"1235","k","0","0","-1","133","56","53","7","1","4","0","2"
"1148","d","2","1","1","134","27","7","74","0","4","0","2"
"1686","k","3","0","0","135","7","10","93","1","4","1","2"
"1169","k","3","0","0","136","99","64","3","1","4","1","2"
"1366","k","0","0","-1","137","22","50","32","1","4","0","2"
"1195","j","0","0","-1","138","42","95","78","0","4","1","2"
"1114","k","0","0","-1","139","34","36","26","1","4","0","2"
"1237","f","2","1","1","140","38","5","14","0","4","0","2"
"899","d","4","1","2","141","99","16","4","0","4","1","2"
"1755","j","0","0","-1","142","71","74","17","0","4","1","2"
"1547","j","0","0","-1","143","51","74","42","0","5","1","2"
"679","j","0","0","-1","144","22","72","35","1","5","1","2"
"1326","d","4","1","2","145","32","92","1","1","5","0","2"
"1102","f","2","1","1","146","1","17","76","0","5","1","2"
"1097","d","3","1","0","147","28","83","85","0","5","1","2"
"1799","k","0","0","-1","148","67","6","73","1","5","0","2"
"null","null","-1","1","-1","149","98","57","75","0","5","0","2"
"1229","k","3","0","0","150","9","78","37","1","5","1","2"
"1552","f","3","1","0","151","53","56","42","1","5","0","2"
"1186","f","3","1","0","152","75","72","6","0","5","0","2"
"1121","k","3","0","0","153","18","49","83","1","5","1","2"
"1297","j","3","0","0","154","33","95","94","0","5","0","2"
"1227","k","3","0","0","155","20","2","71","0","5","1","2"
"1715","k","0","0","-1","156","29","66","34","1","5","0","2"
"1038","f","4","1","2","157","15","67","57","1","5","1","2"
"1370","f","3","1","0","158","67","87","28","0","5","1","2"
"null","null","-1","0","-1","159","88","62","52","1","5","0","2"
"1688","f","3","1","0","160","4","63","9","0","5","1","2"
"1653","j","3","0","0","161","74","65","51","0","5","0","2"
"875","f","2","1","1","162","16","48","15","1","5","0","2"
"null","null","-1","0","-1","163","19","14","22","0","6","1","2"
"1334","f","3","1","0","164","20","69","53","0","6","1","2"
"1501","j","3","0","0","165","7","9","75","0","6","0","2"
"1264","f","3","1","0","166","27","84","2","1","6","1","2"
"1217","f","2","1","1","167","51","55","24","1","6","1","2"
"1562","j","0","0","-1","168","98","18","91","1","6","1","2"
"935","f","4","1","2","169","43","56","98","1","6","0","2"
"1234","f","3","1","0","170","62","26","96","0","6","0","2"
"1567","j","3","0","0","171","43","35","42","0","6","0","2"
"1584","f","4","1","2","172","17","3","39","0","6","1","2"
"1203","f","4","1","2","173","70","3","87","0","6","1","2"
"null","null","-1","0","-1","174","2","55","97","1","6","1","2"
"1210","j","3","0","0","175","1","28","35","0","6","0","2"
"1780","k","3","0","0","176","29","55","32","1","6","1","2"
"1182","f","4","1","2","177","49","74","3","1","6","1","2"
"1522","f","2","1","1","178","52","48","97","1","6","0","2"
"1712","f","2","1","1","179","65","45","70","1","6","0","2"
"1580","j","3","0","0","180","44","23","95","1","6","0","2"
"1005","j","3","0","0","181","43","97","20","0","6","0","2"
"1108","j","3","0","0","182","45","85","35","0","6","0","2"
"1250","f","2","1","1","183","15","11","77","0","7","1","2"
"1108","d","2","1","1","184","8","97","59","1","7","1","2"
"1151","j","0","0","-1","185","14","79","3","0","7","1","2"
"1110","f","2","1","1","186","24","87","53","1","7","1","2"
"1988","k","3","0","0","187","80","27","41","1","7","1","2"
"1302","f","3","1","0","188","81","30","59","0","7","0","2"
"1352","j","3","0","0","189","31","85","94","0","7","0","2"
"null","null","-1","1","-1","190","73","21","60","1","7","0","2"
"null","null","-1","1","-1","191","34","80","49","1","7","0","2"
"1461","k","0","0","-1","192","57","52","10","1","7","0","2"
"1623","k","0","0","-1","193","76","18","8","1","7","0","2"
"1286","f","2","1","1","194","2","85","31","1","7","1","2"
"926","j","3","0","0","195","22","13","45","0","7","0","2"
"1120","j","3","0","0","196","69","75","31","0","7","0","2"
"1599","d","2","1","1","197","4","11","3","0","7","1","2"
"990","j","0","0","-1","198","80","24","77","0","7","1","2"
"1460","k","0","0","-1","199","4","25","49","1","7","0","2"
"1505","j","0","0","-1","200","57","1","59","0","7","1","2"
"1535","f","4","1","2","201","38","23","15","1","7","1","2"
"null","null","-1","1","-1","202","79","59","38","0","7","0","2"
"null","null","-1","0","-1","203","40","94","2","0","8","1","2"
"null","null","-1","0","-1","204","87","84","97","0","8","1","2"
"1258","f","2","1","1","205","60","30","75","0","8","1","2"
"1250","k","3","0","0","206","71","24","51","1","8","1","2"
"1338","d","3","1","0","207","30","86","36","0","8","0","2"
"1152","f","2","1","1","208","51","4","40","1","8","1","2"
"910","d","2","1","1","209","17","89","32","1","8","0","2"
"1891","j","3","0","0","210","30","69","69","1","8","0","2"
"1202","f","3","1","0","211","25","70","39","0","8","1","2"
"1062","j","3","0","0","212","87","82","48","0","8","0","2"
"1221","j","3","0","0","213","29","32","61","1","8","0","2"
"937","f","2","1","1","214","31","96","17","1","8","0","2"
"1729","k","3","0","0","215","14","21","44","1","8","1","2"
"982","f","3","1","0","216","72","83","77","1","8","1","2"
"1055","f","2","1","1","217","12","18","59","0","8","1","2"
"1249","k","3","0","0","218","96","82","91","1","8","1","2"
"1234","j","3","0","0","219","28","67","81","0","8","0","2"
"1072","k","0","0","-1","220","34","16","60","1","8","0","2"
"1208","f","2","1","1","221","32","41","91","0","8","0","2"
"964","d","3","1","0","222","71","75","21","0","8","0","2"
"1254","j","0","0","-1","223","54","76","32","0","9","1","2"
"1241","f","4","1","2","224","6","49","48","1","9","0","2"
"1336","f","4","1","2","225","62","65","51","1","9","0","2"
"1156","f","2","1","1","226","28","34","37","0","9","1","2"
"1726","j","3","0","0","227","7","48","59","1","9","0","2"
"874","d","4","1","2","228","87","38","91","1","9","0","2"
"null","null","-1","0","-1","229","81","38","43","1","9","1","2"
"1013","k","0","0","-1","230","79","83","60","1","9","0","2"
"1202","j","3","0","0","231","92","87","9","0","9","0","2"
"1054","j","3","0","0","232","99","98","10","0","9","0","2"
"1218","k","3","0","0","233","98","30","12","1","9","1","2"
"1498","k","3","0","0","234","33","48","21","0","9","1","2"
"1233","f","2","1","1","235","69","65","60","0","9","1","2"
"1070","d","4","1","2","236","22","20","54","1","9","1","2"
"865","d","2","1","1","237","11","19","68","0","9","0","2"
"725","f","2","1","1","238","66","89","28","0","9","1","2"
"1127","j","3","0","0","239","76","71","26","0","9","0","2"
"1708","d","2","1","1","240","8","67","71","1","9","1","2"
"1176","k","0","0","-1","241","46","33","67","1","9","0","2"
"1225","f","2","1","1","242","62","78","72","0","9","1","2"
