"rt","key_press","reward","type","marble","trial_num","stim_1","stim_2","new_stim","change_index","block","changed","marble_set"
"10141","d","2","1","0","1","53","46","51","0","0","0","1"
"1605","f","2","1","0","2","27","24","59","0","0","0","1"
"1196","f","2","1","0","3","74","46","0","0","0","0","1"
"1331","f","3","1","1","4","48","5","51","0","0","0","1"
"794","f","2","1","0","5","79","22","73","0","0","0","1"
"3320","d","2","1","0","6","33","36","93","0","0","0","1"
"1147","d","2","1","0","7","73","33","40","0","0","0","1"
"422","d","2","1","0","8","48","54","71","0","0","0","1"
"61","f","4","1","2","9","87","35","39","0","0","0","1"
"112","f","2","1","0","10","41","10","0","0","0","0","1"
"189","d","2","1","0","11","39","12","57","0","0","0","1"
"137","d","2","1","0","12","85","70","7","0","0","0","1"
"4","d","2","1","0","13","97","11","0","0","0","0","1"
"137","d","3","1","1","14","63","93","48","0","0","0","1"
"44","d","2","1","0","15","57","39","90","0","0","0","1"
"126","d","2","1","0","16","27","55","79","0","0","0","1"
"111","d","2","1","0","17","66","80","10","0","0","0","1"
"53","d","3","1","1","18","85","31","75","0","0","0","1"
"142","d","4","1","2","19","6","24","69","0","0","0","1"
"213","d","2","1","0","20","86","28","93","0","0","0","1"
"96971","k","0","0","-1","21","16","88","26","1","0","0","1"
"5404","j","0","0","-1","22","35","66","24","0","0","1","1"
"3270","k","0","0","-1","23","17","6","82","1","0","0","1"
"969","j","0","0","-1","24","82","9","35","0","0","1","1"
"2564","k","0","0","-1","25","75","51","31","0","0","0","1"
"1181","j","3","0","1","26","95","6","42","1","0","0","1"
"1178","j","3","0","1","27","85","3","61","1","0","0","1"
"1588","k","3","0","1","28","62","39","55","1","0","1","1"
"1554","j","3","0","1","29","87","12","37","0","0","0","1"
"2287","k","0","0","-1","30","17","67","1","0","0","0","1"
"1752","k","0","0","-1","31","23","11","79","1","0","0","1"
"2262","k","3","0","1","32","39","78","69","0","0","1","1"
"2008","j","0","0","-1","33","85","43","51","0","0","1","1"
"1089","k","3","0","1","34","9","81","86","0","0","1","1"
"1610","k","0","0","-1","35","90","66","54","1","0","0","1"
"2855","k","3","0","1","36","25","19","65","0","0","1","1"
"2186","k","3","0","1","37","41","86","3","1","0","1","1"
"887","k","3","0","1","38","79","67","56","1","0","1","1"
"2543","k","3","0","1","39","45","22","9","0","0","1","1"
"1748","k","3","0","1","40","51","73","40","1","0","1","1"
"10933","","","","","","","","","","","",""
"11654","","","","","","","","","","","",""
"null","null","-1","0","-1","43","55","5","23","0","0","1","1"
"null","null","-1","0","-1","44","37","7","44","0","0","0","1"
"null","null","-1","1","-1","45","76","64","7","1","0","0","1"
"null","null","-1","1","-1","46","53","33","74","0","0","0","1"
"104","j","0","0","-1","47","23","56","22","0","0","1","1"
"null","null","-1","0","-1","48","71","34","12","0","0","0","1"
"null","null","-1","0","-1","49","33","57","57","0","0","1","1"
"1557","d","3","1","1","50","18","4","19","1","0","1","1"
"1801","d","2","1","0","51","27","95","21","1","0","0","1"
"1788","d","4","1","2","52","50","64","1","0","0","1","1"
"1754","d","2","1","0","53","16","79","20","0","0","0","1"
"1729","d","4","1","2","54","29","40","23","0","0","1","1"
"1268","d","2","1","0","55","79","54","34","0","0","0","1"
"1484","j","0","0","-1","56","1","55","2","1","0","1","1"
"1513","d","2","1","0","57","73","88","42","1","0","0","1"
"1319","d","2","1","0","58","89","77","21","1","0","0","1"
"1798","j","0","0","-1","59","40","91","57","1","0","1","1"
"1707","k","3","0","1","60","39","18","59","1","0","1","1"
"null","null","-1","0","-1","61","39","38","55","1","0","1","1"
"null","null","-1","0","-1","62","4","53","29","1","0","0","1"
"null","null","-1","1","-1","63","8","9","77","1","1","1","1"
"544","j","0","0","-1","64","59","33","49","1","1","1","1"
"23","j","3","0","1","65","29","4","38","0","1","0","1"
"154","f","3","1","1","66","11","32","48","0","1","0","1"
"549","k","3","0","1","67","25","67","91","1","1","1","1"
"181","j","0","0","-1","68","55","94","36","1","1","1","1"
"null","null","-1","1","-1","69","92","81","0","0","1","0","1"
"null","null","-1","1","-1","70","72","42","16","1","1","0","1"
"721","k","0","0","-1","71","13","73","65","1","1","0","1"
"1683","d","2","1","0","72","18","52","7","0","1","1","1"
"305","k","0","0","-1","73","62","19","75","0","1","0","1"
"1530","d","4","1","2","74","3","93","21","1","1","0","1"
"null","null","-1","0","-1","75","40","20","26","0","1","0","1"
"885","f","4","1","2","76","67","88","90","1","1","1","1"
"1821","f","4","1","2","77","56","30","46","1","1","1","1"
"1293","f","2","1","0","78","4","45","34","0","1","1","1"
"1040","f","3","1","1","79","39","24","41","0","1","0","1"
"null","null","-1","0","-1","80","14","89","51","0","1","1","1"
"null","null","-1","0","-1","81","70","56","80","1","1","0","1"
"null","null","-1","0","-1","82","46","77","36","0","1","1","1"
"1906","f","2","1","0","83","84","28","2","1","2","0","1"
"1308","f","2","1","0","84","1","36","16","1","2","1","1"
"null","null","-1","0","-1","85","59","64","81","1","2","1","1"
"492","k","0","0","-1","86","13","59","58","1","2","0","1"
"1305","f","4","1","2","87","58","46","29","1","2","1","1"
"893","k","0","0","-1","88","84","87","2","0","2","0","1"
"null","null","-1","0","-1","89","50","42","73","1","2","0","1"
"1543","k","0","0","-1","90","57","43","73","0","2","0","1"
"null","null","-1","1","-1","91","44","90","73","1","2","0","1"
"null","null","-1","1","-1","92","60","74","98","1","2","0","1"
"1538","f","2","1","0","93","25","39","89","0","2","1","1"
"1808","f","3","1","1","94","49","7","22","0","2","0","1"
"537","f","4","1","2","95","23","66","1","0","2","1","1"
"1645","k","3","0","1","96","99","86","31","1","2","1","1"
"1387","k","0","0","-1","97","31","71","13","0","2","0","1"
"1637","f","3","1","1","98","86","46","80","0","2","1","1"
"1294","f","2","1","0","99","28","30","8","0","2","1","1"
"1783","k","3","0","1","100","11","39","8","0","2","1","1"
"null","null","-1","0","-1","101","33","68","67","1","2","1","1"
"1464","k","0","0","-1","102","86","32","4","0","2","0","1"
"null","null","-1","0","-1","103","51","10","77","0","3","0","1"
"1544","k","0","0","-1","104","93","48","56","1","3","0","1"
"1879","d","3","1","1","105","28","16","65","1","3","0","1"
"1263","j","0","0","-1","106","19","29","56","0","3","1","1"
"1073","f","2","1","0","107","37","7","14","1","3","0","1"
"1435","k","3","0","1","108","41","53","79","1","3","1","1"
"1867","j","3","0","1","109","15","41","80","0","3","0","1"
"1225","d","2","1","0","110","21","89","3","0","3","0","1"
"null","null","-1","1","-1","111","58","24","30","1","3","0","1"
"341","k","0","0","-1","112","19","1","14","0","3","0","1"
"null","null","-1","0","-1","113","46","56","11","0","3","1","1"
"143","f","3","1","1","114","42","74","79","1","3","1","1"
"1278","f","2","1","0","115","42","44","84","1","3","0","1"
"1337","f","4","1","2","116","69","67","35","1","3","1","1"
"1303","f","4","1","2","117","67","9","51","0","3","1","1"
"802","k","0","0","-1","118","56","3","34","1","3","0","1"
"742","f","3","1","1","119","38","86","8","0","3","1","1"
"1543","k","3","0","1","120","14","49","54","0","3","1","1"
"1984","k","3","0","1","121","33","54","93","0","3","1","1"
"null","null","-1","1","-1","122","72","42","62","1","3","1","1"
"1828","f","2","1","0","123","61","73","18","0","4","1","1"
"1059","f","3","1","1","124","43","78","98","1","4","0","1"
"null","null","-1","1","-1","125","4","40","40","0","4","0","1"
"null","null","-1","0","-1","126","22","85","26","0","4","1","1"
"55","d","2","1","0","127","23","80","91","1","4","1","1"
"41","d","2","1","0","128","8","53","84","1","4","0","1"
"19","k","3","0","1","129","8","82","51","0","4","1","1"
"157","d","3","1","1","130","62","82","13","1","4","1","1"
"146","k","0","0","-1","131","59","18","37","1","4","0","1"
"71","k","0","0","-1","132","27","92","11","1","4","0","1"
"153","j","0","0","-1","133","11","75","70","1","4","1","1"
"53","k","0","0","-1","134","7","81","42","0","4","0","1"
"17","k","0","0","-1","135","34","37","57","1","4","0","1"
"106","d","4","1","2","136","89","81","44","0","4","0","1"
"27","d","2","1","0","137","90","67","1","0","4","0","1"
"288","j","0","0","-1","138","48","51","67","1","4","1","1"
"193","d","2","1","0","139","16","33","27","1","4","1","1"
"258","k","0","0","-1","140","63","30","22","0","4","0","1"
"53","d","3","1","1","141","24","5","64","0","4","1","1"
"232","j","0","0","-1","142","1","35","26","0","4","1","1"
"1074","f","3","1","1","143","75","63","54","0","5","1","1"
"1089","f","3","1","1","144","97","67","88","1","5","1","1"
"null","null","-1","0","-1","145","72","45","98","0","5","0","1"
"1322","k","0","0","-1","146","43","97","74","1","5","0","1"
"1363","k","0","0","-1","147","76","71","78","1","5","0","1"
"null","null","-1","1","-1","148","87","59","31","1","5","0","1"
"1841","f","2","1","0","149","36","37","74","0","5","1","1"
"null","null","-1","0","-1","150","88","89","58","1","5","0","1"
"364","k","0","0","-1","151","3","50","34","0","5","0","1"
"196","f","2","1","0","152","81","85","64","0","5","1","1"
"216","k","3","0","1","153","47","36","44","1","5","1","1"
"68","d","3","1","1","154","8","53","20","1","5","1","1"
"1120","d","3","1","1","155","12","32","50","0","5","0","1"
"371","f","2","1","0","156","34","88","27","0","5","1","1"
"184","d","2","1","0","157","25","2","22","1","5","0","1"
"55","f","2","1","0","158","69","89","60","0","5","1","1"
"213","k","3","0","1","159","66","80","54","0","5","1","1"
"310","j","3","0","1","160","51","63","26","1","5","0","1"
"141","k","3","0","1","161","2","37","69","1","5","1","1"
"44","j","3","0","1","162","86","60","89","0","5","0","1"
"null","null","-1","0","-1","163","19","85","73","1","6","1","1"
"1158","d","2","1","0","164","14","33","5","1","6","0","1"
"1150","j","3","0","1","165","35","37","44","1","6","0","1"
"1560","d","2","1","0","166","81","45","93","0","6","0","1"
"1283","d","4","1","2","167","88","44","75","1","6","1","1"
"1451","j","0","0","-1","168","98","29","96","0","6","1","1"
"1381","d","2","1","0","169","53","39","4","1","6","0","1"
"1440","j","3","0","1","170","63","89","34","0","6","0","1"
"1437","j","3","0","1","171","1","26","14","0","6","0","1"
"1351","j","0","0","-1","172","38","23","56","0","6","1","1"
"934","d","2","1","0","173","4","80","63","1","6","1","1"
"1734","d","3","1","1","174","31","50","29","0","6","1","1"
"1566","d","2","1","0","175","19","28","36","1","6","0","1"
"1489","j","3","0","1","176","78","82","70","1","6","0","1"
"1169","j","0","0","-1","177","90","48","23","0","6","1","1"
"1708","j","0","0","-1","178","74","35","49","1","6","1","1"
"1344","d","4","1","2","179","87","4","95","0","6","0","1"
"1638","d","3","1","1","180","20","71","98","1","6","0","1"
"1502","k","3","0","1","181","1","37","21","0","6","1","1"
"null","null","-1","1","-1","182","31","95","56","0","6","1","1"
"137","j","3","0","1","183","57","25","14","0","7","0","1"
"48","k","3","0","1","184","97","3","55","0","7","1","1"
"44","d","3","1","1","185","20","89","33","1","7","1","1"
"752","d","4","1","2","186","49","1","59","1","7","0","1"
"145","f","4","1","2","187","66","53","59","1","7","0","1"
"377","d","2","1","0","188","36","82","68","0","7","0","1"
"208","d","3","1","1","189","94","62","98","1","7","0","1"
"283","k","3","0","1","190","27","79","16","1","7","1","1"
"157","k","3","0","1","191","78","62","8","0","7","1","1"
"32","f","2","1","0","192","5","92","81","1","7","0","1"
"0","k","3","0","1","193","90","43","64","0","7","1","1"
"354","j","3","0","1","194","92","16","73","1","7","0","1"
"138","d","3","1","1","195","22","4","62","1","7","1","1"
"175","j","3","0","1","196","60","58","96","0","7","0","1"
"46","d","3","1","1","197","97","46","4","0","7","0","1"
"4","f","2","1","0","198","36","92","48","0","7","0","1"
"139","k","3","0","1","199","60","68","12","0","7","1","1"
"186","d","2","1","0","200","42","88","76","1","7","1","1"
"20","k","3","0","1","201","3","51","7","1","7","1","1"
"232","j","0","0","-1","202","59","20","85","0","7","1","1"
"175","f","2","1","0","203","37","28","47","1","8","1","1"
"null","null","-1","1","-1","204","59","73","91","1","8","0","1"
"null","null","-1","0","-1","205","69","79","14","0","8","1","1"
"817","d","3","1","1","206","28","73","5","0","8","0","1"
"462","k","0","0","-1","207","41","64","33","0","8","0","1"
"null","null","-1","1","-1","208","97","62","9","0","8","0","1"
"null","null","-1","0","-1","209","38","51","85","0","8","1","1"
"529","d","3","1","1","210","62","0","8","1","8","1","1"
"723","j","0","0","-1","211","98","7","0","1","8","1","1"
"516","j","3","0","1","212","92","48","79","1","8","0","1"
"705","d","3","1","1","213","1","22","79","0","8","0","1"
"572","k","3","0","1","214","80","63","96","1","8","1","1"
"230","k","0","0","-1","215","40","18","88","1","8","0","1"
"48","d","3","1","1","216","81","50","63","0","8","1","1"
"165","k","3","0","1","217","52","30","71","1","8","1","1"
"74","d","4","1","2","218","49","72","90","0","8","0","1"
"194","d","2","1","0","219","44","27","2","1","8","0","1"
"156","d","2","1","0","220","69","40","60","1","8","1","1"
"0","j","3","0","1","221","91","15","57","0","8","0","1"
"44","k","3","0","1","222","33","69","47","0","8","1","1"
"591","d","2","1","0","223","95","84","50","0","9","0","1"
"306","d","2","1","0","224","60","68","21","1","9","1","1"
"119","k","3","0","1","225","24","54","33","0","9","1","1"
"452","k","3","0","1","226","59","71","25","1","9","1","1"
"362","k","3","0","1","227","36","8","85","1","9","1","1"
"168","d","3","1","1","228","21","57","27","0","9","1","1"
"null","null","-1","1","-1","229","72","42","63","0","9","1","1"
"1301","d","2","1","0","230","54","52","34","0","9","1","1"
"null","null","-1","1","-1","231","70","1","20","0","9","0","1"
"null","null","-1","1","-1","232","43","24","94","1","9","0","1"
"196","k","3","0","1","233","49","31","71","1","9","1","1"
"null","null","-1","0","-1","234","53","98","14","0","9","0","1"
"90","d","2","1","0","235","37","2","9","1","9","0","1"
"82","d","2","1","0","236","44","19","21","0","9","1","1"
"246","k","0","0","-1","237","63","33","58","0","9","0","1"
"136","j","3","0","1","238","61","29","83","1","9","0","1"
"524","k","0","0","-1","239","72","3","74","1","9","0","1"
"69","k","0","0","-1","240","45","96","47","0","9","0","1"
"97","k","0","0","-1","241","57","59","51","1","9","0","1"
"243","d","4","1","2","242","29","85","41","1","9","1","1"
