"rt","key_press","reward","type","marble","trial_num","stim_1","stim_2","new_stim","change_index","block","changed","marble_set"
"34479.09999999404","d","2","1","1","1","73","63","56","0","0","0","5"
"1476.6000000089407","d","2","1","1","2","48","53","67","0","0","0","5"
"3218.7000000029802","f","2","1","1","3","78","1","91","0","0","0","5"
"398.29999999701977","d","4","1","0","4","15","2","96","0","0","0","5"
"567","d","2","1","1","5","70","92","47","0","0","0","5"
"2771.3999999910593","f","2","1","1","6","60","85","37","0","0","0","5"
"474.5","d","3","1","2","7","72","2","36","0","0","0","5"
"1239.2999999970198","d","4","1","0","8","57","48","19","0","0","0","5"
"2624.7000000029802","d","2","1","1","9","12","77","84","0","0","0","5"
"361.5","d","2","1","1","10","33","58","66","0","0","0","5"
"1000.0999999940395","f","2","1","1","11","24","86","22","0","0","0","5"
"908","d","2","1","1","12","23","6","77","0","0","0","5"
"303.09999999403954","d","2","1","1","13","6","89","13","0","0","0","5"
"2976.2999999970198","f","3","1","2","14","38","20","46","0","0","0","5"
"1074.199999988079","d","2","1","1","15","39","78","88","0","0","0","5"
"577","d","2","1","1","16","7","95","60","0","0","0","5"
"525.2999999970198","f","2","1","1","17","4","86","86","0","0","0","5"
"23.100000008940697","d","2","1","1","18","16","54","27","0","0","0","5"
"500.5","f","2","1","1","19","56","15","66","0","0","0","5"
"917.7000000029802","d","2","1","1","20","85","46","51","0","0","0","5"
"7478.29999999702","k","0","0","-1","21","87","80","62","1","0","0","5"
"5620.79999999702","k","3","0","2","22","2","82","65","1","0","1","5"
"4076.2999999970198","k","3","0","2","23","94","58","5","0","0","1","5"
"2602.3999999910593","j","3","0","2","24","68","16","8","1","0","0","5"
"2156.699999988079","j","3","0","2","25","33","76","58","0","0","0","5"
"2608.199999988079","k","3","0","2","26","59","78","72","0","0","1","5"
"1802.7000000029802","k","3","0","2","27","97","67","46","1","0","1","5"
"2085.8999999910593","j","3","0","2","28","28","69","6","0","0","0","5"
"1830.7000000029802","j","3","0","2","29","68","94","45","1","0","0","5"
"3445.0999999940395","k","0","0","-1","30","27","26","74","0","0","0","5"
"3199","k","3","0","2","31","66","44","11","1","0","1","5"
"2327.6000000089407","j","3","0","2","32","57","7","28","0","0","0","5"
"1796","j","3","0","2","33","14","23","46","1","0","0","5"
"1841","j","0","0","-1","34","62","39","54","0","0","1","5"
"1706.199999988079","k","3","0","2","35","13","88","96","1","0","1","5"
"1905.0999999940395","k","0","0","-1","36","21","52","91","0","0","0","5"
"1855.300000011921","k","0","0","-1","37","98","85","51","1","0","0","5"
"1559.4000000059605","j","0","0","-1","38","86","29","91","1","0","1","5"
"2774.7999999970198","j","0","0","-1","39","19","59","12","0","0","1","5"
"508.90000000596046","k","3","0","2","40","44","45","62","0","0","1","5"
"11264.5","","","","","","","","","","","",""
"3051.7000000029802","","","","","","","","","","","",""
"3198.4000000059605","","","","","","","","","","","",""
"2530.3999999910593","","","","","","","","","","","",""
"null","null","-1","0","-1","45","10","92","6","1","0","1","5"
"1947.2000000029802","d","2","1","1","46","30","86","61","0","0","1","5"
"null","null","-1","0","-1","47","78","14","53","0","0","0","5"
"null","null","-1","1","-1","48","80","53","82","0","0","1","5"
"1180.6000000089407","d","4","1","0","49","99","75","81","1","0","0","5"
"null","null","-1","0","-1","50","46","26","86","0","0","1","5"
"1249.5","k","3","0","2","51","8","76","3","0","0","1","5"
"1716","k","0","0","-1","52","67","89","14","1","0","0","5"
"null","null","-1","0","-1","53","4","64","46","1","0","0","5"
"1286.0999999940395","d","2","1","1","54","34","10","61","0","0","0","5"
"null","null","-1","1","-1","55","15","96","34","0","0","0","5"
"1576.2999999970198","j","0","0","-1","56","55","67","67","0","0","1","5"
"1858.5","d","3","1","2","57","38","35","62","1","0","0","5"
"1333.800000011921","d","2","1","1","58","77","2","79","0","0","1","5"
"null","null","-1","1","-1","59","87","84","39","1","0","1","5"
"null","null","-1","0","-1","60","87","73","93","1","0","1","5"
"null","null","-1","0","-1","61","80","15","1","0","0","0","5"
"null","null","-1","1","-1","62","93","1","40","1","0","1","5"
"1517.2000000029802","k","0","0","-1","63","61","32","17","1","0","0","5"
"1564.9000000059605","d","2","1","1","64","46","43","63","1","0","0","5"
"1264.2000000029802","d","4","1","0","65","67","12","75","1","1","0","5"
"1056.2000000029802","d","4","1","0","66","33","86","76","0","1","1","5"
"null","null","-1","1","-1","67","5","16","47","0","1","0","5"
"879.7000000029802","j","0","0","-1","68","59","11","41","1","1","1","5"
"1790.7000000029802","f","3","1","2","69","49","6","51","1","1","0","5"
"1025.3999999910593","k","0","0","-1","70","96","29","91","1","1","0","5"
"649","d","2","1","1","71","45","0","61","0","1","1","5"
"1762","f","2","1","1","72","15","86","19","0","1","0","5"
"1244.3999999910593","j","3","0","2","73","1","14","21","0","1","0","5"
"1385.2000000029802","j","3","0","2","74","83","12","46","0","1","0","5"
"1000","d","4","1","0","75","6","43","10","0","1","1","5"
"1918.9000000059605","k","3","0","2","76","97","98","20","1","1","1","5"
"1663.5","j","3","0","2","77","53","70","91","1","1","0","5"
"null","null","-1","0","-1","78","13","79","66","0","1","1","5"
"1031.5","k","0","0","-1","79","28","32","25","1","1","0","5"
"696.8999999910593","d","2","1","1","80","28","30","56","1","1","0","5"
"856.7999999970198","j","0","0","-1","81","31","54","29","0","1","1","5"
"1177.1000000089407","k","3","0","2","82","27","47","81","0","1","1","5"
"716.1000000089407","d","2","1","1","83","92","94","12","1","1","1","5"
"871.3999999910593","d","3","1","2","84","43","19","95","1","1","1","5"
"854.9000000059605","k","3","0","2","85","22","45","80","1","2","1","5"
"null","null","-1","1","-1","86","27","46","76","0","2","0","5"
"1100.5","j","0","0","-1","87","41","38","7","1","2","1","5"
"818.2000000029802","k","3","0","2","88","77","41","5","1","2","1","5"
"898.3999999910593","k","0","0","-1","89","6","79","16","0","2","0","5"
"785","d","2","1","1","90","29","30","83","0","2","0","5"
"1694.0999999940395","k","3","0","2","91","89","63","96","1","2","1","5"
"1242.9000000059605","f","2","1","1","92","7","12","57","1","2","0","5"
"643.4000000059605","d","2","1","1","93","68","53","74","1","2","1","5"
"888.9000000059605","k","3","0","2","94","2","85","78","1","2","1","5"
"768.9000000059605","d","2","1","1","95","95","85","97","0","2","0","5"
"919.1000000089407","d","2","1","1","96","92","20","74","0","2","0","5"
"1298.3999999910593","f","3","1","2","97","79","93","11","0","2","0","5"
"1235.0999999940395","k","0","0","-1","98","62","45","64","1","2","0","5"
"1200.5","k","3","0","2","99","63","47","57","0","2","1","5"
"1040.7999999970198","f","3","1","2","100","45","34","1","0","2","0","5"
"841.2999999970198","d","2","1","1","101","21","29","74","1","2","1","5"
"1606.0999999940395","k","3","0","2","102","63","85","27","0","2","1","5"
"1695.199999988079","k","0","0","-1","103","11","23","83","0","2","0","5"
"841.7999999970198","d","2","1","1","104","93","83","71","1","2","1","5"
"868.2000000029802","d","3","1","2","105","70","45","61","1","3","1","5"
"1753","f","2","1","1","106","98","54","61","0","3","1","5"
"1441.5999999940395","k","0","0","-1","107","60","25","71","1","3","0","5"
"478.79999999701977","d","2","1","1","108","23","90","58","1","3","0","5"
"null","null","-1","0","-1","109","83","98","29","1","3","0","5"
"1332.300000011921","k","3","0","2","110","99","97","51","1","3","1","5"
"1277","k","3","0","2","111","92","50","62","1","3","1","5"
"708.8000000119209","f","3","1","2","112","51","42","84","0","3","0","5"
"1310.9000000059605","j","3","0","2","113","88","51","69","1","3","0","5"
"586.8000000119209","f","2","1","1","114","66","64","45","0","3","0","5"
"1240.5","f","3","1","2","115","75","26","57","1","3","1","5"
"842.7000000029802","d","2","1","1","116","77","67","97","0","3","0","5"
"1363.300000011921","j","0","0","-1","117","86","20","23","0","3","1","5"
"1070.5999999940395","k","3","0","2","118","1","66","71","1","3","1","5"
"914.4000000059605","f","4","1","0","119","90","29","6","0","3","1","5"
"889.7000000029802","f","2","1","1","120","77","10","52","0","3","0","5"
"754.4000000059605","d","4","1","0","121","1","10","45","0","3","1","5"
"1103.4000000059605","j","0","0","-1","122","4","23","59","0","3","1","5"
"1121.2000000029802","j","3","0","2","123","1","94","73","0","3","0","5"
"1181.0999999940395","j","3","0","2","124","71","83","67","1","3","0","5"
"1065.2000000029802","f","2","1","1","125","99","85","34","1","4","0","5"
"738.3999999910593","j","3","0","2","126","64","67","58","0","4","0","5"
"849.7000000029802","f","2","1","1","127","4","29","58","0","4","1","5"
"756.7000000029802","d","4","1","0","128","39","38","55","0","4","0","5"
"737.0999999940395","d","2","1","1","129","39","0","25","1","4","0","5"
"656.3999999910593","f","3","1","2","130","11","41","7","0","4","1","5"
"1013.7999999970198","j","3","0","2","131","2","72","60","0","4","0","5"
"642","d","3","1","2","132","36","58","40","1","4","1","5"
"1139.5999999940395","k","0","0","-1","133","1","22","26","1","4","0","5"
"802.2000000029802","d","2","1","1","134","68","38","29","0","4","1","5"
"992.2999999970198","j","0","0","-1","135","38","41","81","1","4","1","5"
"805.8999999910593","k","0","0","-1","136","69","90","15","1","4","0","5"
"861.3000000119209","j","3","0","2","137","74","79","18","0","4","0","5"
"570.5","j","0","0","-1","138","71","69","95","1","4","1","5"
"536.6999999880791","k","3","0","2","139","73","14","84","1","4","1","5"
"739.0999999940395","k","0","0","-1","140","30","10","3","1","4","0","5"
"792.2999999970198","d","2","1","1","141","92","31","15","0","4","1","5"
"1091","f","3","1","2","142","11","47","33","1","4","1","5"
"1079.0999999940395","j","3","0","2","143","12","64","90","0","4","0","5"
"684.7999999970198","d","3","1","2","144","74","35","17","0","4","1","5"
"1256.2000000029802","j","0","0","-1","145","19","15","6","1","5","1","5"
"1325.7000000029802","j","3","0","2","146","89","88","47","1","5","0","5"
"838.9000000059605","d","2","1","1","147","11","28","75","1","5","1","5"
"857.2000000029802","f","2","1","1","148","49","33","65","0","5","0","5"
"655.5","d","2","1","1","149","49","41","53","1","5","0","5"
"937.7999999970198","j","3","0","2","150","73","11","64","0","5","0","5"
"1036.7999999970198","k","3","0","2","151","31","84","28","0","5","1","5"
"1142.4000000059605","j","3","0","2","152","19","53","49","0","5","0","5"
"938.9000000059605","f","2","1","1","153","36","44","73","1","5","1","5"
"1022.3000000119209","j","0","0","-1","154","14","27","25","1","5","1","5"
"689","d","3","1","2","155","22","45","42","1","5","0","5"
"1598.2999999970198","d","2","1","1","156","49","4","30","0","5","1","5"
"539.1999999880791","f","2","1","1","157","24","54","0","0","5","0","5"
"936","j","0","0","-1","158","91","3","57","0","5","1","5"
"899.9000000059605","d","4","1","0","159","1","22","65","1","5","0","5"
"729.3999999910593","f","3","1","2","160","81","63","56","0","5","0","5"
"926.5","d","3","1","2","161","48","61","55","1","5","0","5"
"963.9000000059605","j","0","0","-1","162","8","75","6","1","5","1","5"
"1134.7000000029802","k","3","0","2","163","14","97","18","0","5","1","5"
"892.4000000059605","k","3","0","2","164","65","9","52","0","5","1","5"
"1339.3999999910593","k","0","0","-1","165","96","34","36","0","6","0","5"
"1306.0999999940395","j","0","0","-1","166","86","20","21","0","6","1","5"
"453.29999999701977","d","4","1","0","167","99","68","8","0","6","1","5"
"1172.2000000029802","d","4","1","0","168","82","9","46","1","6","0","5"
"495.1000000089407","f","3","1","2","169","1","81","22","1","6","0","5"
"947.4000000059605","d","3","1","2","170","51","23","33","1","6","0","5"
"1166.7000000029802","j","3","0","2","171","10","93","32","0","6","0","5"
"744.6999999880791","d","2","1","1","172","9","89","95","0","6","0","5"
"989.1000000089407","k","3","0","2","173","21","27","72","1","6","1","5"
"712.5999999940395","d","4","1","0","174","90","20","64","0","6","1","5"
"1102.9000000059605","k","0","0","-1","175","6","96","38","1","6","0","5"
"755.0999999940395","f","2","1","1","176","77","66","81","1","6","1","5"
"728.2999999970198","d","2","1","1","177","25","11","40","0","6","1","5"
"1425.4000000059605","j","3","0","2","178","6","11","71","0","6","0","5"
"785.5999999940395","k","3","0","2","179","8","91","21","1","6","1","5"
"1426.699999988079","k","3","0","2","180","14","2","3","0","6","1","5"
"695","d","2","1","1","181","50","83","97","1","6","1","5"
"1636.5","k","0","0","-1","182","10","31","69","1","6","0","5"
"1000.0999999940395","k","0","0","-1","183","77","4","96","1","6","0","5"
"810.2000000029802","d","4","1","0","184","6","0","70","0","6","1","5"
"654.7999999970198","d","2","1","1","185","28","79","26","0","7","0","5"
"680.2999999970198","d","3","1","2","186","20","36","10","1","7","1","5"
"null","null","-1","1","-1","187","57","37","72","0","7","0","5"
"595","d","3","1","2","188","65","21","20","0","7","1","5"
"681.5","k","0","0","-1","189","99","75","79","1","7","0","5"
"771.5","d","2","1","1","190","43","78","6","1","7","0","5"
"1055.4000000059605","j","3","0","2","191","83","77","64","0","7","0","5"
"1003.2000000029802","k","3","0","2","192","68","98","74","1","7","1","5"
"655.6999999880791","k","0","0","-1","193","41","62","96","0","7","0","5"
"1296.0999999940395","j","3","0","2","194","43","58","49","1","7","0","5"
"748.1000000089407","d","2","1","1","195","51","74","85","1","7","1","5"
"605.7999999970198","f","3","1","2","196","63","62","86","0","7","1","5"
"431.3999999910593","k","0","0","-1","197","68","41","1","1","7","0","5"
"1226.800000011921","k","3","0","2","198","34","76","83","0","7","1","5"
"790.7000000029802","d","2","1","1","199","28","45","25","0","7","0","5"
"1013.2999999970198","j","0","0","-1","200","9","4","89","1","7","1","5"
"654.8000000119209","d","2","1","1","201","20","22","91","0","7","1","5"
"1047","j","0","0","-1","202","1","44","55","1","7","1","5"
"702.2000000029802","d","4","1","0","203","67","41","43","0","7","1","5"
"1479.300000011921","j","3","0","2","204","58","38","62","1","7","0","5"
"592.8999999910593","d","2","1","1","205","59","45","75","1","8","1","5"
"1057.7999999970198","f","2","1","1","206","94","4","76","1","8","0","5"
"963.2000000029802","j","0","0","-1","207","56","96","44","0","8","1","5"
"1305.3999999910593","j","3","0","2","208","71","97","79","0","8","0","5"
"1413.6000000089407","j","0","0","-1","209","64","11","8","0","8","1","5"
"1202.7000000029802","k","0","0","-1","210","18","72","2","1","8","0","5"
"700.8000000119209","d","2","1","1","211","11","62","45","1","8","0","5"
"884","f","2","1","1","212","82","8","66","0","8","0","5"
"1044.2999999970198","f","2","1","1","213","37","85","17","0","8","1","5"
"632.1000000089407","d","3","1","2","214","1","81","52","0","8","1","5"
"1711.9000000059605","j","0","0","-1","215","2","83","45","0","8","1","5"
"730.5","d","3","1","2","216","82","89","31","1","8","1","5"
"1238.0999999940395","j","3","0","2","217","90","42","60","0","8","0","5"
"638.5999999940395","d","2","1","1","218","51","4","46","1","8","1","5"
"867.3999999910593","d","2","1","1","219","71","46","45","1","8","0","5"
"1200","j","0","0","-1","220","54","57","62","1","8","1","5"
"747.8999999910593","d","2","1","1","221","62","0","53","1","8","0","5"
"1191.3999999910593","j","0","0","-1","222","3","16","81","1","8","1","5"
"1373.7999999970198","j","3","0","2","223","33","63","23","0","8","0","5"
"1000.2000000029802","j","3","0","2","224","87","42","1","0","8","0","5"
"null","null","-1","0","-1","225","96","59","39","1","9","1","5"
"1115.5999999940395","j","0","0","-1","226","12","75","85","1","9","1","5"
"767.5999999940395","d","2","1","1","227","97","35","32","0","9","1","5"
"1181.2000000029802","f","2","1","1","228","29","50","70","0","9","1","5"
"723.4000000059605","d","2","1","1","229","95","23","56","0","9","0","5"
"600.4000000059605","j","0","0","-1","230","23","39","13","1","9","1","5"
"1114.300000011921","j","0","0","-1","231","75","87","58","0","9","1","5"
"705.9000000059605","d","3","1","2","232","72","96","7","1","9","0","5"
"1121.1000000089407","d","4","1","0","233","3","19","93","0","9","0","5"
"617.7999999970198","k","3","0","2","234","24","58","62","0","9","1","5"
"523.9000000059605","k","0","0","-1","235","64","1","43","1","9","0","5"
"923.4000000059605","j","3","0","2","236","54","60","62","1","9","0","5"
"717.5","d","2","1","1","237","37","73","5","0","9","1","5"
"439.20000000298023","f","2","1","1","238","79","55","84","1","9","0","5"
"606","d","3","1","2","239","4","70","43","0","9","0","5"
"1020.1000000089407","j","3","0","2","240","59","17","87","0","9","0","5"
"1041","f","3","1","2","241","26","11","88","1","9","0","5"
"885.6000000089407","j","0","0","-1","242","35","21","2","0","9","1","5"
"895.3000000119209","k","3","0","2","243","37","23","50","1","9","1","5"
"711","d","3","1","2","244","13","39","34","1","9","0","5"
