"rt","key_press","reward","type","marble","trial_num","stim_1","stim_2","new_stim","change_index","block","changed","marble_set"
"1592","f","4","1","0","1","52","22","78","0","0","0","0"
"539","f","2","1","2","2","62","59","60","0","0","0","0"
"461","d","4","1","0","3","32","88","52","0","0","0","0"
"372","d","3","1","1","4","8","86","25","0","0","0","0"
"310","f","2","1","2","5","80","90","90","0","0","0","0"
"354","f","4","1","0","6","68","41","42","0","0","0","0"
"371","d","3","1","1","7","57","83","51","0","0","0","0"
"330","f","2","1","2","8","62","84","10","0","0","0","0"
"391","d","2","1","2","9","17","83","32","0","0","0","0"
"360","f","3","1","1","10","81","13","62","0","0","0","0"
"334","d","2","1","2","11","3","94","24","0","0","0","0"
"304","f","2","1","2","12","91","40","97","0","0","0","0"
"270","f","3","1","1","13","81","75","50","0","0","0","0"
"303","f","4","1","0","14","27","61","25","0","0","0","0"
"265","d","3","1","1","15","40","34","63","0","0","0","0"
"269","d","3","1","1","16","79","49","97","0","0","0","0"
"309","f","3","1","1","17","31","1","46","0","0","0","0"
"255","f","2","1","2","18","16","51","19","0","0","0","0"
"252","d","3","1","1","19","47","0","70","0","0","0","0"
"297","d","2","1","2","20","22","83","3","0","0","0","0"
"2843","j","0","0","-1","21","15","23","74","1","0","1","0"
"2001","k","3","0","1","22","38","87","26","0","0","1","0"
"1172","k","3","0","1","23","18","39","82","0","0","1","0"
"3238","k","3","0","1","24","23","88","29","1","0","1","0"
"3857","j","0","0","-1","25","64","86","96","0","0","1","0"
"650","k","0","0","-1","26","28","89","46","0","0","0","0"
"1645","k","3","0","1","27","14","41","17","0","0","1","0"
"2178","k","0","0","-1","28","70","38","34","1","0","0","0"
"914","j","3","0","1","29","83","4","22","1","0","0","0"
"2054","k","3","0","1","30","63","23","26","0","0","1","0"
"1040","j","3","0","1","31","8","52","83","0","0","0","0"
"865","j","3","0","1","32","8","82","70","1","0","0","0"
"1258","j","3","0","1","33","7","77","14","0","0","0","0"
"721","k","3","0","1","34","19","9","75","0","0","1","0"
"893","k","3","0","1","35","55","11","29","0","0","1","0"
"1378","k","3","0","1","36","53","89","82","1","0","1","0"
"2278","k","0","0","-1","37","82","92","45","1","0","0","0"
"872","j","0","0","-1","38","2","51","78","1","0","1","0"
"996","k","0","0","-1","39","13","73","40","0","0","0","0"
"1604","j","3","0","1","40","42","17","98","1","0","0","0"
"2638","","","","","","","","","","","",""
"1044","j","3","0","1","42","8","83","30","0","0","0","0"
"1383","d","2","1","2","43","49","65","82","1","0","1","0"
"565","f","4","1","0","44","16","9","3","0","0","0","0"
"445","d","3","1","1","45","79","6","81","0","0","1","0"
"1153","d","3","1","1","46","82","10","60","1","0","1","0"
"512","d","3","1","1","47","56","16","1","0","0","1","0"
"1280","k","3","0","1","48","95","1","86","0","0","1","0"
"996","j","3","0","1","49","47","57","28","1","0","0","0"
"1358","k","0","0","-1","50","62","55","79","1","0","0","0"
"1339","j","3","0","1","51","21","50","44","1","0","0","0"
"1610","k","0","0","-1","52","33","1","97","0","0","0","0"
"878","f","2","1","2","53","72","7","41","1","0","1","0"
"810","f","2","1","2","54","78","84","58","1","0","1","0"
"1075","j","3","0","1","55","34","65","73","1","0","0","0"
"1066","j","3","0","1","56","30","29","63","0","0","0","0"
"1396","k","3","0","1","57","24","69","12","1","0","1","0"
"null","null","-1","0","-1","58","69","61","54","0","0","1","0"
"786","f","2","1","2","59","83","64","4","0","0","0","0"
"787","f","4","1","0","60","73","41","17","1","0","1","0"
"568","f","4","1","0","61","26","66","45","0","0","0","0"
"1175","k","3","0","1","62","23","28","45","1","1","1","0"
"1126","j","3","0","1","63","11","39","41","0","1","0","0"
"683","d","3","1","1","64","13","44","37","1","1","1","0"
"584","d","3","1","1","65","41","91","6","0","1","0","0"
"1163","k","0","0","-1","66","1","56","56","1","1","0","0"
"1454","k","3","0","1","67","25","18","79","1","1","1","0"
"476","f","3","1","1","68","80","74","7","0","1","1","0"
"591","d","2","1","2","69","69","80","11","1","1","0","0"
"681","f","2","1","2","70","91","3","16","0","1","0","0"
"1194","k","3","0","1","71","92","40","96","0","1","1","0"
"511","d","2","1","2","72","54","25","79","0","1","0","0"
"928","k","3","0","1","73","43","31","0","0","1","1","0"
"1920","k","3","0","1","74","77","11","94","0","1","1","0"
"1160","j","3","0","1","75","34","76","66","1","1","0","0"
"1755","k","0","0","-1","76","78","48","49","0","1","0","0"
"414","f","4","1","0","77","55","61","42","1","1","1","0"
"1488","k","0","0","-1","78","8","76","73","1","1","0","0"
"405","d","2","1","2","79","70","59","41","1","1","1","0"
"941","d","3","1","1","80","60","61","76","1","1","1","0"
"706","d","3","1","1","81","39","11","21","0","1","0","0"
"630","f","3","1","1","82","38","81","45","0","2","1","0"
"536","d","3","1","1","83","1","69","24","0","2","0","0"
"429","d","2","1","2","84","74","48","56","1","2","0","0"
"1426","j","3","0","1","85","97","19","3","0","2","0","0"
"977","k","3","0","1","86","26","4","22","1","2","1","0"
"1466","j","3","0","1","87","60","57","34","1","2","0","0"
"1764","j","3","0","1","88","59","38","31","0","2","0","0"
"490","d","2","1","2","89","33","85","93","1","2","0","0"
"784","d","3","1","1","90","58","77","69","0","2","1","0"
"1569","j","0","0","-1","91","71","22","46","0","2","1","0"
"464","d","4","1","0","92","29","25","71","1","2","0","0"
"484","d","4","1","0","93","1","20","18","0","2","0","0"
"1507","k","0","0","-1","94","33","95","88","1","2","0","0"
"1125","k","3","0","1","95","28","24","66","0","2","1","0"
"1594","k","0","0","-1","96","68","89","2","0","2","0","0"
"1396","k","3","0","1","97","12","54","63","0","2","1","0"
"925","f","3","1","1","98","86","66","73","1","2","1","0"
"771","f","2","1","2","99","4","50","50","1","2","1","0"
"556","f","3","1","1","100","45","52","81","1","2","1","0"
"1206","k","3","0","1","101","6","46","64","1","2","1","0"
"433","d","2","1","2","102","23","91","21","1","3","0","0"
"1891","k","0","0","-1","103","76","29","74","1","3","0","0"
"1787","j","0","0","-1","104","47","57","23","0","3","1","0"
"1244","k","3","0","1","105","12","55","8","0","3","1","0"
"1080","j","3","0","1","106","40","87","43","0","3","0","0"
"897","k","3","0","1","107","76","59","0","0","3","1","0"
"802","d","4","1","0","108","87","93","6","0","3","1","0"
"707","d","3","1","1","109","61","52","7","0","3","0","0"
"1104","k","0","0","-1","110","63","56","62","1","3","0","0"
"657","d","2","1","2","111","87","6","50","1","3","0","0"
"1136","j","3","0","1","112","48","95","33","0","3","0","0"
"751","d","2","1","2","113","90","28","15","0","3","1","0"
"1225","k","3","0","1","114","61","71","97","0","3","1","0"
"457","f","2","1","2","115","55","31","96","1","3","1","0"
"1054","k","3","0","1","116","82","16","17","1","3","1","0"
"615","d","2","1","2","117","12","45","79","1","3","0","0"
"700","f","3","1","1","118","86","32","92","0","3","0","0"
"735","f","3","1","1","119","24","31","10","1","3","1","0"
"658","f","2","1","2","120","48","38","82","1","3","0","0"
"955","k","3","0","1","121","45","91","79","1","3","1","0"
"740","f","3","1","1","122","47","26","94","1","4","1","0"
"508","d","2","1","2","123","20","5","71","0","4","1","0"
"1031","k","3","0","1","124","22","79","76","0","4","1","0"
"985","k","0","0","-1","125","61","28","13","1","4","0","0"
"1124","j","3","0","1","126","59","86","46","0","4","0","0"
"665","f","3","1","1","127","25","60","3","1","4","0","0"
"599","f","2","1","2","128","45","84","75","0","4","0","0"
"691","d","2","1","2","129","59","80","54","1","4","0","0"
"1161","k","3","0","1","130","56","60","7","0","4","1","0"
"568","f","2","1","2","131","45","64","56","1","4","1","0"
"528","f","3","1","1","132","6","63","78","0","4","0","0"
"718","d","2","1","2","133","7","22","98","0","4","0","0"
"1454","j","0","0","-1","134","71","73","30","0","4","1","0"
"999","k","3","0","1","135","71","33","83","0","4","1","0"
"1124","j","3","0","1","136","85","55","44","1","4","0","0"
"900","k","3","0","1","137","57","35","21","1","4","1","0"
"787","f","3","1","1","138","62","88","1","1","4","1","0"
"1157","j","3","0","1","139","45","17","66","1","4","0","0"
"1340","k","0","0","-1","140","37","74","32","0","4","0","0"
"672","f","2","1","2","141","80","15","77","1","4","1","0"
"551","d","4","1","0","142","88","83","43","0","5","0","0"
"514","f","2","1","2","143","5","69","25","0","5","0","0"
"976","k","3","0","1","144","33","81","14","0","5","1","0"
"1091","k","3","0","1","145","72","84","9","0","5","1","0"
"506","d","3","1","1","146","88","8","40","0","5","1","0"
"611","f","4","1","0","147","81","1","69","0","5","1","0"
"500","d","2","1","2","148","68","24","31","1","5","0","0"
"463","d","3","1","1","149","22","44","87","0","5","0","0"
"1254","j","3","0","1","150","38","62","32","1","5","0","0"
"1081","j","3","0","1","151","58","64","33","1","5","0","0"
"908","j","3","0","1","152","38","20","93","0","5","0","0"
"847","d","4","1","0","153","17","23","35","1","5","1","0"
"1414","k","3","0","1","154","71","46","54","1","5","1","0"
"529","f","3","1","1","155","55","44","73","1","5","1","0"
"1050","j","3","0","1","156","62","72","78","1","5","0","0"
"1206","j","0","0","-1","157","39","13","82","0","5","1","0"
"1524","k","3","0","1","158","93","72","49","0","5","1","0"
"739","d","2","1","2","159","7","12","25","1","5","0","0"
"718","f","4","1","0","160","57","70","68","1","5","1","0"
"1355","k","0","0","-1","161","38","35","17","1","5","0","0"
"1169","j","3","0","1","162","92","20","33","0","6","0","0"
"1236","k","3","0","1","163","39","74","52","0","6","1","0"
"1089","j","3","0","1","164","74","24","43","0","6","0","0"
"611","d","2","1","2","165","64","20","26","1","6","1","0"
"805","d","2","1","2","166","89","90","36","0","6","1","0"
"683","f","2","1","2","167","98","42","19","1","6","0","0"
"702","f","4","1","0","168","59","40","43","1","6","1","0"
"1347","j","3","0","1","169","58","33","32","1","6","0","0"
"1316","j","3","0","1","170","23","71","94","1","6","0","0"
"1394","k","3","0","1","171","30","59","47","0","6","1","0"
"514","d","4","1","0","172","88","60","17","1","6","0","0"
"1745","j","3","0","1","173","55","81","59","0","6","0","0"
"973","j","3","0","1","174","26","76","51","0","6","0","0"
"804","f","3","1","1","175","85","82","83","1","6","1","0"
"611","f","2","1","2","176","47","50","64","1","6","1","0"
"540","f","2","1","2","177","78","79","31","1","6","0","0"
"547","f","3","1","1","178","85","41","54","0","6","1","0"
"1385","j","0","0","-1","179","93","40","10","1","6","1","0"
"1295","k","3","0","1","180","50","35","51","0","6","1","0"
"742","d","3","1","1","181","63","2","13","0","6","0","0"
"1265","k","3","0","1","182","17","84","54","1","7","1","0"
"501","d","2","1","2","183","9","13","13","0","7","1","0"
"1553","j","3","0","1","184","4","17","97","0","7","0","0"
"1309","f","2","1","2","185","5","51","39","1","7","0","0"
"1486","k","3","0","1","186","82","16","7","1","7","1","0"
"501","d","4","1","0","187","14","97","40","0","7","1","0"
"508","f","3","1","1","188","22","9","7","0","7","1","0"
"465","f","4","1","0","189","15","67","89","1","7","0","0"
"869","k","3","0","1","190","97","56","17","1","7","1","0"
"1319","j","3","0","1","191","35","0","16","1","7","0","0"
"722","f","4","1","0","192","70","10","97","0","7","1","0"
"1055","k","3","0","1","193","36","24","68","0","7","1","0"
"604","d","2","1","2","194","6","52","18","1","7","0","0"
"1404","k","3","0","1","195","65","36","59","1","7","1","0"
"740","f","3","1","1","196","34","6","46","0","7","0","0"
"1935","k","3","0","1","197","16","65","3","1","7","1","0"
"478","d","2","1","2","198","98","72","42","0","7","0","0"
"731","d","2","1","2","199","41","84","3","0","7","0","0"
"1727","j","3","0","1","200","46","85","12","1","7","0","0"
"1222","k","0","0","-1","201","28","30","27","0","7","0","0"
"1132","k","0","0","-1","202","82","81","86","1","8","0","0"
"1112","k","3","0","1","203","2","3","68","1","8","1","0"
"1769","j","3","0","1","204","69","25","96","0","8","0","0"
"1370","k","3","0","1","205","44","34","26","1","8","1","0"
"701","d","3","1","1","206","62","11","88","0","8","1","0"
"1447","j","0","0","-1","207","15","64","19","0","8","1","0"
"572","d","2","1","2","208","61","81","97","1","8","1","0"
"614","f","2","1","2","209","65","2","5","0","8","0","0"
"1032","j","3","0","1","210","26","0","10","1","8","0","0"
"1424","k","0","0","-1","211","5","16","65","1","8","0","0"
"457","d","2","1","2","212","64","86","68","1","8","1","0"
"584","d","3","1","1","213","61","47","85","0","8","1","0"
"538","d","2","1","2","214","41","2","50","0","8","1","0"
"482","d","3","1","1","215","58","78","87","1","8","0","0"
"1452","j","3","0","1","216","11","14","6","0","8","0","0"
"1322","k","3","0","1","217","27","51","19","0","8","1","0"
"1930","j","0","0","-1","218","99","77","95","1","8","1","0"
"714","d","3","1","1","219","33","62","98","0","8","0","0"
"766","f","3","1","1","220","54","41","16","1","8","0","0"
"630","d","2","1","2","221","17","38","60","0","8","0","0"
"492","d","2","1","2","222","22","91","88","0","9","0","0"
"568","d","3","1","1","223","29","80","97","0","9","1","0"
"979","k","0","0","-1","224","29","43","86","1","9","0","0"
"909","k","3","0","1","225","83","61","23","0","9","1","0"
"700","d","3","1","1","226","32","43","48","0","9","0","0"
"1155","j","3","0","1","227","55","62","69","0","9","0","0"
"1229","j","3","0","1","228","73","53","27","1","9","0","0"
"827","d","2","1","2","229","83","16","38","0","9","1","0"
"1432","j","3","0","1","230","19","93","32","0","9","0","0"
"1363","k","0","0","-1","231","56","26","23","1","9","0","0"
"633","d","2","1","2","232","63","34","6","0","9","0","0"
"520","f","3","1","1","233","34","88","23","1","9","0","0"
"761","f","4","1","0","234","70","17","69","1","9","1","0"
"786","d","3","1","1","235","58","52","69","0","9","1","0"
"586","d","3","1","1","236","60","27","91","1","9","0","0"
"1031","j","0","0","-1","237","37","18","2","1","9","1","0"
"1206","j","0","0","-1","238","85","47","54","1","9","1","0"
"1724","j","0","0","-1","239","8","80","98","1","9","1","0"
"1368","k","3","0","1","240","37","96","32","1","9","1","0"
"543","d","4","1","0","241","57","95","69","0","9","1","0"
