"rt","key_press","reward","type","marble","trial_num","stim_1","stim_2","new_stim","change_index","block","changed","marble_set"
"1407","d","2","1","1","1","77","63","87","0","0","0","2"
"1448","f","3","1","0","2","61","51","29","0","0","0","2"
"785","d","2","1","1","3","45","62","27","0","0","0","2"
"1250","f","2","1","1","4","30","68","24","0","0","0","2"
"866","f","2","1","1","5","11","96","70","0","0","0","2"
"1042","d","4","1","2","6","53","15","60","0","0","0","2"
"700","f","4","1","2","7","79","27","74","0","0","0","2"
"648","d","3","1","0","8","14","84","62","0","0","0","2"
"636","d","2","1","1","9","47","69","97","0","0","0","2"
"563","f","2","1","1","10","66","67","57","0","0","0","2"
"282","d","2","1","1","11","74","89","97","0","0","0","2"
"223","f","2","1","1","12","96","92","91","0","0","0","2"
"486","d","4","1","2","13","9","50","54","0","0","0","2"
"497","d","3","1","0","14","69","21","23","0","0","0","2"
"268","f","3","1","0","15","89","41","55","0","0","0","2"
"329","d","2","1","1","16","60","72","90","0","0","0","2"
"183","f","4","1","2","17","58","77","19","0","0","0","2"
"249","d","2","1","1","18","16","39","44","0","0","0","2"
"303","f","2","1","1","19","94","15","18","0","0","0","2"
"660","d","2","1","1","20","73","14","62","0","0","0","2"
"1696","j","0","0","-1","21","4","3","27","1","0","1","2"
"1192","k","0","0","-1","22","58","5","59","0","0","0","2"
"1005","j","0","0","-1","23","32","5","68","0","0","1","2"
"1980","k","0","0","-1","24","7","6","44","0","0","0","2"
"3887","k","3","0","0","25","94","3","36","0","0","1","2"
"1695","k","3","0","0","26","36","72","21","1","0","1","2"
"1038","j","3","0","0","27","45","31","74","0","0","0","2"
"1180","k","3","0","0","28","30","14","21","1","0","1","2"
"755","k","3","0","0","29","18","27","36","1","0","1","2"
"804","j","3","0","0","30","92","33","95","0","0","0","2"
"721","k","3","0","0","31","52","10","63","0","0","1","2"
"795","j","3","0","0","32","30","91","70","1","0","0","2"
"719","k","0","0","-1","33","97","30","73","0","0","0","2"
"672","j","0","0","-1","34","76","31","12","1","0","1","2"
"684","k","0","0","-1","35","13","3","98","1","0","0","2"
"463","j","3","0","0","36","41","22","61","0","0","0","2"
"581","j","3","0","0","37","69","92","59","0","0","0","2"
"100","k","3","0","0","38","95","40","79","1","0","1","2"
"900","j","3","0","0","39","76","0","22","1","0","0","2"
"857","k","3","0","0","40","49","54","92","1","0","1","2"
"12876","","","","","","","","","","","",""
"6015","","","","","","","","","","","",""
"1735","d","4","1","2","43","53","87","64","0","0","1","2"
"null","null","-1","0","-1","44","17","48","85","1","0","0","2"
"null","null","-1","0","-1","45","9","49","16","1","0","0","2"
"1235","k","0","0","-1","46","37","82","9","0","0","0","2"
"1222","k","3","0","0","47","18","97","92","0","0","1","2"
"964","f","2","1","1","48","81","35","61","1","0","0","2"
"1106","d","2","1","1","49","71","78","63","1","0","0","2"
"930","d","4","1","2","50","32","73","53","1","0","0","2"
"924","k","0","0","-1","51","74","41","43","1","0","0","2"
"null","null","-1","0","-1","52","21","38","37","0","0","0","2"
"1036","d","2","1","1","53","52","11","48","0","0","1","2"
"1122","k","3","0","0","54","78","74","25","1","0","1","2"
"973","d","3","1","0","55","82","8","66","1","0","0","2"
"932","d","2","1","1","56","9","57","29","0","0","1","2"
"1053","k","3","0","0","57","86","32","70","1","0","1","2"
"1897","d","2","1","1","58","30","59","19","0","0","1","2"
"1333","k","3","0","0","59","44","67","55","0","0","1","2"
"897","k","0","0","-1","60","63","62","14","1","0","0","2"
"776","f","2","1","1","61","51","55","48","0","0","1","2"
"866","d","4","1","2","62","96","93","4","0","0","1","2"
"1081","k","0","0","-1","63","93","12","9","0","1","0","2"
"1021","j","3","0","0","64","4","82","2","0","1","0","2"
"902","d","2","1","1","65","26","50","74","0","1","0","2"
"1034","f","2","1","1","66","58","4","26","1","1","0","2"
"1020","k","0","0","-1","67","75","97","28","0","1","0","2"
"1506","j","0","0","-1","68","58","86","14","1","1","1","2"
"1070","d","2","1","1","69","11","9","47","0","1","0","2"
"1015","d","3","1","0","70","46","22","54","1","1","1","2"
"1009","d","2","1","1","71","42","28","32","1","1","0","2"
"1084","d","2","1","1","72","82","9","85","0","1","1","2"
"1018","j","0","0","-1","73","46","64","90","1","1","1","2"
"1010","k","3","0","0","74","69","7","88","0","1","1","2"
"988","k","3","0","0","75","81","16","73","1","1","1","2"
"1247","d","2","1","1","76","32","50","89","1","1","1","2"
"981","k","0","0","-1","77","72","47","45","0","1","0","2"
"967","d","4","1","2","78","75","22","2","1","1","1","2"
"1021","j","0","0","-1","79","60","31","96","1","1","1","2"
"1077","k","0","0","-1","80","59","66","89","0","1","0","2"
"823","d","2","1","1","81","61","19","11","0","1","1","2"
"1271","d","4","1","2","82","75","87","21","1","1","0","2"
"998","d","4","1","2","83","92","93","80","0","2","1","2"
"965","j","0","0","-1","84","42","86","28","0","2","1","2"
"996","d","4","1","2","85","32","64","57","0","2","0","2"
"902","d","2","1","1","86","85","71","22","1","2","1","2"
"943","f","3","1","0","87","72","82","48","0","2","1","2"
"1206","j","3","0","0","88","20","43","7","1","2","0","2"
"1059","d","2","1","1","89","4","52","96","0","2","0","2"
"959","d","4","1","2","90","1","44","8","1","2","1","2"
"1157","j","3","0","0","91","48","82","18","1","2","0","2"
"954","d","2","1","1","92","90","88","60","1","2","1","2"
"851","d","2","1","1","93","84","61","23","0","2","0","2"
"1096","k","3","0","0","94","94","78","0","0","2","1","2"
"929","d","2","1","1","95","96","41","18","1","2","0","2"
"1094","j","0","0","-1","96","88","31","55","1","2","1","2"
"992","k","0","0","-1","97","80","65","57","0","2","0","2"
"913","j","3","0","0","98","54","95","94","1","2","0","2"
"1052","k","3","0","0","99","62","63","9","0","2","1","2"
"989","k","3","0","0","100","21","35","91","1","2","1","2"
"1014","j","3","0","0","101","17","56","7","0","2","0","2"
"1165","d","2","1","1","102","44","65","68","1","2","0","2"
"816","d","3","1","0","103","99","84","6","0","3","1","2"
"926","j","3","0","0","104","36","82","77","1","3","0","2"
"824","d","3","1","0","105","38","47","89","0","3","0","2"
"893","j","3","0","0","106","87","5","17","1","3","0","2"
"995","k","3","0","0","107","26","62","76","0","3","1","2"
"927","j","3","0","0","108","65","49","58","0","3","0","2"
"949","j","0","0","-1","109","93","55","27","0","3","1","2"
"1071","d","4","1","2","110","2","34","94","1","3","1","2"
"954","d","2","1","1","111","70","65","56","0","3","1","2"
"943","k","3","0","0","112","44","21","88","0","3","1","2"
"1010","d","2","1","1","113","6","96","42","1","3","0","2"
"1594","f","2","1","1","114","97","45","6","1","3","1","2"
"859","d","4","1","2","115","82","21","55","0","3","0","2"
"861","d","2","1","1","116","86","2","20","1","3","0","2"
"977","j","3","0","0","117","23","18","59","1","3","0","2"
"1315","j","0","0","-1","118","39","37","74","1","3","1","2"
"1351","j","3","0","0","119","96","91","43","0","3","0","2"
"866","d","3","1","0","120","9","8","39","0","3","1","2"
"947","k","0","0","-1","121","52","25","27","1","3","0","2"
"854","d","2","1","1","122","76","44","17","1","3","1","2"
"1014","d","3","1","0","123","96","76","42","1","4","1","2"
"979","f","2","1","1","124","75","73","30","1","4","0","2"
"1136","k","3","0","0","125","83","96","16","0","4","1","2"
"954","d","2","1","1","126","18","6","22","1","4","1","2"
"932","f","2","1","1","127","73","78","56","1","4","1","2"
"1047","k","0","0","-1","128","5","14","9","0","4","0","2"
"988","d","2","1","1","129","93","10","2","0","4","0","2"
"940","j","0","0","-1","130","10","72","45","1","4","1","2"
"1143","k","0","0","-1","131","36","50","16","0","4","0","2"
"899","d","2","1","1","132","4","77","16","0","4","0","2"
"956","j","3","0","0","133","32","54","40","1","4","0","2"
"1123","j","3","0","0","134","88","8","51","1","4","0","2"
"973","k","0","0","-1","135","95","44","62","0","4","0","2"
"1088","j","0","0","-1","136","82","86","67","0","4","1","2"
"933","d","3","1","0","137","80","24","21","0","4","1","2"
"1174","d","4","1","2","138","40","29","47","1","4","1","2"
"911","f","2","1","1","139","50","5","66","1","4","0","2"
"null","null","-1","0","-1","140","8","83","74","0","4","0","2"
"920","k","3","0","0","141","94","69","70","0","4","1","2"
"897","d","3","1","0","142","58","42","15","1","4","1","2"
"1003","k","0","0","-1","143","53","46","12","0","5","0","2"
"971","k","3","0","0","144","90","15","91","0","5","1","2"
"935","d","2","1","1","145","45","6","21","1","5","0","2"
"920","f","3","1","0","146","1","3","43","1","5","1","2"
"947","j","0","0","-1","147","75","18","88","1","5","1","2"
"1532","d","4","1","2","148","9","55","58","0","5","0","2"
"914","j","0","0","-1","149","43","6","34","0","5","1","2"
"908","f","2","1","1","150","21","47","34","0","5","0","2"
"983","j","0","0","-1","151","70","22","20","0","5","1","2"
"1113","d","4","1","2","152","46","59","70","0","5","0","2"
"903","k","3","0","0","153","99","42","52","1","5","1","2"
"1305","k","3","0","0","154","1","16","63","1","5","1","2"
"1123","d","4","1","2","155","37","30","58","1","5","1","2"
"988","j","3","0","0","156","23","77","19","0","5","0","2"
"956","d","2","1","1","157","93","73","34","0","5","0","2"
"894","d","2","1","1","158","6","78","15","1","5","0","2"
"995","d","3","1","0","159","14","21","25","1","5","1","2"
"922","j","3","0","0","160","69","1","64","1","5","0","2"
"957","k","3","0","0","161","39","67","42","1","5","1","2"
"877","d","4","1","2","162","19","77","74","0","5","0","2"
"1015","d","3","1","0","163","69","82","45","0","6","0","2"
"1561","k","0","0","-1","164","42","65","16","1","6","0","2"
"916","j","0","0","-1","165","61","11","85","0","6","1","2"
"1131","d","3","1","0","166","44","83","82","0","6","0","2"
"829","f","2","1","1","167","32","65","61","1","6","0","2"
"1079","j","0","0","-1","168","97","92","31","1","6","1","2"
"1126","d","2","1","1","169","15","51","93","1","6","0","2"
"995","k","0","0","-1","170","52","92","87","1","6","0","2"
"979","j","0","0","-1","171","24","20","96","1","6","1","2"
"954","k","3","0","0","172","97","91","15","0","6","1","2"
"1385","k","3","0","0","173","28","76","38","0","6","1","2"
"840","d","2","1","1","174","12","63","22","0","6","0","2"
"862","d","2","1","1","175","99","68","95","0","6","0","2"
"1099","j","3","0","0","176","71","77","33","1","6","0","2"
"848","k","3","0","0","177","86","26","46","1","6","1","2"
"850","d","2","1","1","178","90","71","50","0","6","1","2"
"842","k","3","0","0","179","75","54","42","0","6","1","2"
"901","d","2","1","1","180","81","20","4","1","6","1","2"
"1172","f","2","1","1","181","42","48","13","0","6","1","2"
"942","d","2","1","1","182","71","96","77","1","6","0","2"
"849","d","2","1","1","183","86","59","17","0","7","1","2"
"1213","j","3","0","0","184","50","91","93","1","7","0","2"
"1012","k","0","0","-1","185","68","24","95","0","7","0","2"
"856","d","4","1","2","186","73","11","70","1","7","0","2"
"821","j","3","0","0","187","44","84","76","1","7","0","2"
"1034","d","3","1","0","188","17","36","83","0","7","0","2"
"967","f","2","1","1","189","99","83","35","0","7","0","2"
"943","k","3","0","0","190","35","78","34","1","7","1","2"
"953","k","3","0","0","191","74","37","42","1","7","1","2"
"888","k","0","0","-1","192","5","19","88","0","7","0","2"
"908","j","0","0","-1","193","52","19","98","1","7","1","2"
"833","k","3","0","0","194","88","59","2","1","7","1","2"
"1023","d","2","1","1","195","24","9","64","0","7","0","2"
"954","d","2","1","1","196","5","76","25","0","7","1","2"
"929","f","4","1","2","197","21","26","9","1","7","1","2"
"1166","j","0","0","-1","198","99","25","62","1","7","1","2"
"1180","d","2","1","1","199","90","24","39","1","7","0","2"
"null","null","-1","1","-1","200","98","81","96","0","7","1","2"
"983","j","0","0","-1","201","78","84","55","0","7","1","2"
"1036","d","2","1","1","202","69","31","9","0","7","0","2"
"995","k","0","0","-1","203","21","62","47","1","8","0","2"
"914","j","3","0","0","204","19","64","88","1","8","0","2"
"911","d","2","1","1","205","38","35","86","0","8","0","2"
"1267","k","0","0","-1","206","32","74","62","0","8","0","2"
"816","d","2","1","1","207","4","40","70","0","8","0","2"
"null","null","-1","1","-1","208","41","45","76","0","8","1","2"
"885","d","2","1","1","209","11","36","45","0","8","1","2"
"890","k","3","0","0","210","80","89","43","1","8","1","2"
"824","k","0","0","-1","211","27","63","19","1","8","0","2"
"866","j","3","0","0","212","6","87","38","1","8","0","2"
"1028","j","0","0","-1","213","29","90","18","1","8","1","2"
"803","k","3","0","0","214","21","25","10","1","8","1","2"
"851","k","0","0","-1","215","40","33","8","1","8","0","2"
"1059","d","3","1","0","216","2","18","90","0","8","1","2"
"860","d","2","1","1","217","66","86","24","0","8","0","2"
"890","f","3","1","0","218","31","39","43","1","8","1","2"
"820","d","2","1","1","219","7","91","19","0","8","1","2"
"755","d","4","1","2","220","15","28","58","0","8","1","2"
"825","j","3","0","0","221","56","13","96","0","8","0","2"
"1733","d","2","1","1","222","37","60","11","1","8","1","2"
"1034","j","0","0","-1","223","99","34","55","0","9","1","2"
"1058","d","2","1","1","224","73","53","88","1","9","0","2"
"1069","j","0","0","-1","225","77","82","38","0","9","1","2"
"918","k","0","0","-1","226","22","97","73","0","9","0","2"
"1016","j","3","0","0","227","76","85","56","1","9","0","2"
"894","d","2","1","1","228","12","10","26","0","9","0","2"
"966","f","2","1","1","229","15","83","5","1","9","1","2"
"770","d","2","1","1","230","34","54","53","0","9","1","2"
"893","d","3","1","0","231","2","1","40","1","9","0","2"
"966","k","0","0","-1","232","18","80","98","0","9","0","2"
"1059","j","0","0","-1","233","63","57","39","1","9","1","2"
"926","d","2","1","1","234","24","48","38","0","9","1","2"
"903","d","2","1","1","235","77","50","56","1","9","0","2"
"811","d","2","1","1","236","74","10","37","1","9","0","2"
"1060","k","3","0","0","237","45","95","63","1","9","1","2"
"null","null","-1","0","-1","238","62","80","80","0","9","0","2"
"847","d","3","1","0","239","84","57","43","0","9","1","2"
"977","j","3","0","0","240","18","79","39","1","9","0","2"
"null","null","-1","0","-1","241","97","64","34","1","9","1","2"
"890","d","3","1","0","242","24","87","69","0","9","1","2"
