"rt","key_press","reward","type","marble","trial_num","stim_1","stim_2","new_stim","change_index","block","changed","marble_set"
"6852.899999856949","d","2","1","1","1","55","5","62","0","0","0","5"
"8028.599999904633","f","2","1","1","2","43","80","66","0","0","0","5"
"909.1000001430511","d","3","1","2","3","66","88","97","0","0","0","5"
"589","f","3","1","2","4","30","13","76","0","0","0","5"
"597.4000000953674","d","2","1","1","5","76","18","60","0","0","0","5"
"348.09999990463257","d","2","1","1","6","21","19","80","0","0","0","5"
"549.2000000476837","f","2","1","1","7","59","54","69","0","0","0","5"
"485.40000009536743","d","2","1","1","8","9","55","47","0","0","0","5"
"685.1999998092651","f","3","1","2","9","27","94","0","0","0","0","5"
"605.8999998569489","d","3","1","2","10","36","82","27","0","0","0","5"
"588.4000000953674","d","3","1","2","11","2","20","67","0","0","0","5"
"1357.8999998569489","d","2","1","1","12","66","16","47","0","0","0","5"
"492.59999990463257","f","2","1","1","13","19","51","76","0","0","0","5"
"789.2000000476837","d","2","1","1","14","92","43","38","0","0","0","5"
"765.2000000476837","f","2","1","1","15","90","50","6","0","0","0","5"
"820.2999999523163","f","3","1","2","16","48","78","98","0","0","0","5"
"773.6000001430511","d","2","1","1","17","12","93","24","0","0","0","5"
"644.6000001430511","f","3","1","2","18","24","68","10","0","0","0","5"
"677.5999999046326","d","2","1","1","19","11","92","33","0","0","0","5"
"726","f","4","1","0","20","70","88","16","0","0","0","5"
"5812.5","k","3","0","2","21","31","56","56","0","0","1","5"
"908.8999998569489","k","3","0","2","22","90","41","21","1","0","1","5"
"1213.1999998092651","k","0","0","-1","23","37","84","97","0","0","0","5"
"1645","k","0","0","-1","24","62","16","97","1","0","0","5"
"2349.300000190735","k","0","0","-1","25","13","45","67","0","0","0","5"
"5572.900000095367","j","3","0","2","26","24","47","44","1","0","0","5"
"604.5999999046326","k","0","0","-1","27","36","56","0","0","0","0","5"
"636.7999999523163","j","3","0","2","28","46","19","53","1","0","0","5"
"972.1000001430511","j","0","0","-1","29","57","62","62","1","0","1","5"
"580.5999999046326","k","3","0","2","30","20","38","69","1","0","1","5"
"1605.7000000476837","j","0","0","-1","31","72","98","14","1","0","1","5"
"597.4000000953674","j","0","0","-1","32","92","75","43","0","0","1","5"
"868.7999999523163","k","3","0","2","33","67","1","79","0","0","1","5"
"797","k","3","0","2","34","14","50","29","0","0","1","5"
"885.3999998569489","k","0","0","-1","35","49","81","27","0","0","0","5"
"581.9000000953674","j","3","0","2","36","27","45","92","1","0","0","5"
"652.5","k","3","0","2","37","22","35","95","0","0","1","5"
"717.7999999523163","k","0","0","-1","38","37","68","33","1","0","0","5"
"644.5","j","0","0","-1","39","14","53","31","0","0","1","5"
"820.7999999523163","j","3","0","2","40","48","68","35","1","0","0","5"
"11878.099999904633","","","","","","","","","","","",""
"8447.200000047684","","","","","","","","","","","",""
"3081.4000000953674","","","","","","","","","","","",""
"null","null","-1","1","-1","44","71","77","16","1","0","0","5"
"null","null","-1","0","-1","45","61","84","0","0","0","1","5"
"null","null","-1","1","-1","46","51","27","88","0","0","1","5"
"null","null","-1","0","-1","47","60","4","88","0","0","0","5"
"1032.2999999523163","j","3","0","2","48","88","30","79","1","0","0","5"
"1046.7999999523163","k","3","0","2","49","18","73","96","1","0","1","5"
"935.7999999523163","f","2","1","1","50","23","64","76","0","0","0","5"
"1352.7000000476837","f","2","1","1","51","10","47","36","1","0","1","5"
"1224.2000000476837","j","3","0","2","52","19","37","42","0","0","0","5"
"976","f","2","1","1","53","7","86","62","0","0","0","5"
"960.0999999046326","f","2","1","1","54","58","31","6","1","0","1","5"
"912.5","j","0","0","-1","55","4","24","72","1","0","1","5"
"1800.8999998569489","j","0","0","-1","56","59","58","77","0","0","1","5"
"744.7999999523163","d","4","1","0","57","75","13","40","0","0","1","5"
"814.5","k","0","0","-1","58","89","74","1","1","0","0","5"
"985.5","f","2","1","1","59","46","61","77","1","0","1","5"
"896.0999999046326","k","0","0","-1","60","77","2","20","1","0","0","5"
"920.7999999523163","f","2","1","1","61","61","37","82","1","0","1","5"
"928","k","0","0","-1","62","2","31","81","0","0","0","5"
"855.6000001430511","f","2","1","1","63","39","62","74","0","0","0","5"
"null","null","-1","0","-1","64","87","98","31","1","1","1","5"
"679.5","j","3","0","2","65","39","56","92","1","1","0","5"
"1624","d","2","1","1","66","48","78","11","1","1","0","5"
"1207.7000000476837","j","0","0","-1","67","70","89","83","1","1","1","5"
"776.0999999046326","d","3","1","2","68","65","14","25","0","1","1","5"
"1359.6000001430511","f","2","1","1","69","34","4","42","0","1","0","5"
"968.5","f","2","1","1","70","50","27","52","0","1","1","5"
"991.7999999523163","f","4","1","0","71","90","6","33","0","1","1","5"
"1224.0999999046326","j","3","0","2","72","53","87","52","1","1","0","5"
"984.9000000953674","d","2","1","1","73","42","33","1","0","1","1","5"
"912.2999999523163","k","0","0","-1","74","71","96","81","1","1","0","5"
"1009","d","2","1","1","75","57","81","86","1","1","0","5"
"1536","j","3","0","2","76","40","80","25","0","1","0","5"
"1064.7000000476837","f","3","1","2","77","15","54","56","1","1","0","5"
"1511.2000000476837","f","2","1","1","78","22","68","16","0","1","0","5"
"728.6000001430511","k","3","0","2","79","43","58","64","1","1","1","5"
"935.3000001907349","j","0","0","-1","80","49","92","41","0","1","1","5"
"1209.0999999046326","f","2","1","1","81","74","0","30","1","1","1","5"
"608.2999999523163","k","3","0","2","82","50","35","92","0","1","1","5"
"911.0999999046326","j","3","0","2","83","58","93","18","0","1","0","5"
"null","null","-1","0","-1","84","29","1","10","0","2","0","5"
"1263.2999999523163","k","3","0","2","85","74","33","17","0","2","1","5"
"808.1000001430511","k","0","0","-1","86","40","64","9","1","2","0","5"
"1735.2999999523163","k","0","0","-1","87","9","66","0","0","2","0","5"
"1041.3000001907349","d","2","1","1","88","70","33","75","1","2","0","5"
"944.5","f","4","1","0","89","15","70","72","0","2","1","5"
"1513","d","2","1","1","90","56","5","11","0","2","0","5"
"null","null","-1","1","-1","91","28","93","81","1","2","0","5"
"null","null","-1","0","-1","92","68","95","75","1","2","1","5"
"1176.4000000953674","k","3","0","2","93","94","51","42","1","2","1","5"
"1999.2999999523163","j","0","0","-1","94","51","44","58","1","2","1","5"
"1569.5999999046326","k","3","0","2","95","67","69","84","0","2","1","5"
"983.2999999523163","k","0","0","-1","96","7","12","46","1","2","0","5"
"992.5","d","4","1","0","97","49","54","52","1","2","0","5"
"1047.3999998569489","j","3","0","2","98","80","72","62","0","2","0","5"
"848.4000000953674","f","2","1","1","99","79","98","76","1","2","0","5"
"937.0999999046326","f","2","1","1","100","70","45","61","1","2","1","5"
"928.3999998569489","d","3","1","2","101","61","40","37","0","2","1","5"
"1064.7000000476837","f","3","1","2","102","93","80","49","0","2","1","5"
"640.4000000953674","d","2","1","1","103","96","3","42","0","2","1","5"
"713.7999999523163","k","3","0","2","104","45","43","21","1","3","1","5"
"872.2000000476837","f","3","1","2","105","56","63","19","0","3","1","5"
"775.7999999523163","k","3","0","2","106","50","76","17","1","3","1","5"
"736.3999998569489","j","3","0","2","107","61","7","34","0","3","0","5"
"1577.0999999046326","f","2","1","1","108","65","35","64","1","3","1","5"
"null","null","-1","1","-1","109","49","54","10","0","3","1","5"
"null","null","-1","0","-1","110","4","55","0","0","3","0","5"
"1246","k","3","0","2","111","62","38","34","1","3","1","5"
"null","null","-1","1","-1","112","19","12","81","0","3","0","5"
"1575.6000001430511","f","3","1","2","113","9","86","29","0","3","1","5"
"null","null","-1","0","-1","114","51","82","0","1","3","1","5"
"960.2000000476837","k","3","0","2","115","18","57","19","0","3","1","5"
"1030.6000001430511","f","2","1","1","116","99","62","41","0","3","0","5"
"783.9000000953674","f","3","1","2","117","34","32","69","0","3","0","5"
"831.3999998569489","j","0","0","-1","118","7","20","1","1","3","1","5"
"952.6000001430511","k","0","0","-1","119","76","70","37","1","3","0","5"
"896.1000001430511","f","2","1","1","120","13","43","89","1","3","0","5"
"null","null","-1","1","-1","121","11","57","45","0","3","0","5"
"null","null","-1","0","-1","122","72","28","76","1","3","0","5"
"1047.1000001430511","f","2","1","1","123","59","44","91","1","3","0","5"
"null","null","-1","1","-1","124","2","75","43","1","4","1","5"
"936.9000000953674","d","2","1","1","125","12","63","73","1","4","1","5"
"null","null","-1","0","-1","126","90","97","30","0","4","0","5"
"1430.0999999046326","k","3","0","2","127","28","58","52","0","4","1","5"
"688","k","0","0","-1","128","84","90","64","0","4","0","5"
"927.1000001430511","k","0","0","-1","129","41","49","4","0","4","0","5"
"null","null","-1","0","-1","130","56","54","86","1","4","0","5"
"702.2999999523163","f","2","1","1","131","35","67","26","1","4","1","5"
"1015.5999999046326","k","3","0","2","132","89","51","87","1","4","1","5"
"856","d","4","1","0","133","7","23","92","1","4","1","5"
"1016.6999998092651","d","2","1","1","134","70","63","72","0","4","0","5"
"935.9000000953674","f","2","1","1","135","73","69","9","0","4","1","5"
"751.2999999523163","k","0","0","-1","136","72","19","59","1","4","0","5"
"657.0999999046326","d","3","1","2","137","5","72","12","0","4","1","5"
"1149.9000000953674","k","3","0","2","138","38","26","37","1","4","1","5"
"727.3000001907349","f","2","1","1","139","97","65","1","0","4","1","5"
"1072.2999999523163","j","3","0","2","140","11","47","38","0","4","0","5"
"887.8999998569489","f","2","1","1","141","18","16","6","1","4","0","5"
"985","f","2","1","1","142","34","56","53","1","4","0","5"
"632","k","0","0","-1","143","95","18","32","0","4","0","5"
"1002.6000001430511","k","3","0","2","144","64","24","93","1","5","1","5"
"1103.8999998569489","k","0","0","-1","145","41","5","22","0","5","0","5"
"1032.5","k","3","0","2","146","75","10","27","0","5","1","5"
"1064.1000001430511","k","0","0","-1","147","98","25","51","0","5","0","5"
"944.4000000953674","k","0","0","-1","148","99","65","71","0","5","0","5"
"887.8999998569489","f","2","1","1","149","78","81","65","1","5","0","5"
"1376.4000000953674","k","0","0","-1","150","86","0","49","1","5","0","5"
"1200.0999999046326","f","4","1","0","151","41","7","35","0","5","1","5"
"null","null","-1","1","-1","152","48","20","68","1","5","1","5"
"null","null","-1","1","-1","153","24","21","15","1","5","1","5"
"null","null","-1","0","-1","154","46","4","30","0","5","1","5"
"null","null","-1","1","-1","155","95","12","96","1","5","1","5"
"null","null","-1","1","-1","156","64","25","7","1","5","1","5"
"null","null","-1","0","-1","157","49","36","39","0","5","1","5"
"null","null","-1","1","-1","158","23","27","98","0","5","0","5"
"null","null","-1","1","-1","159","1","44","84","1","5","0","5"
"null","null","-1","0","-1","160","25","92","52","1","5","0","5"
"null","null","-1","0","-1","161","36","52","17","1","5","0","5"
"null","null","-1","1","-1","162","57","3","42","0","5","0","5"
"null","null","-1","1","-1","163","14","2","63","0","5","1","5"
"842.3999998569489","k","0","0","-1","164","49","62","76","1","6","0","5"
"null","null","-1","0","-1","165","48","83","77","1","6","1","5"
"863.5","f","3","1","2","166","57","13","58","1","6","1","5"
"840.0999999046326","d","2","1","1","167","7","21","74","0","6","1","5"
"1136.5","k","3","0","2","168","97","62","36","1","6","1","5"
"776.2999999523163","d","2","1","1","169","51","98","44","0","6","1","5"
"1279.7000000476837","k","3","0","2","170","87","18","51","0","6","1","5"
"null","null","-1","0","-1","171","39","12","53","0","6","1","5"
"910.1000001430511","f","2","1","1","172","60","20","29","1","6","1","5"
"1127.1000001430511","k","3","0","2","173","43","56","13","1","6","1","5"
"856.7000000476837","k","0","0","-1","174","99","36","4","1","6","0","5"
"880.5","f","2","1","1","175","63","10","33","1","6","0","5"
"1039.7000000476837","f","2","1","1","176","32","63","35","0","6","0","5"
"1000.5999999046326","f","3","1","2","177","31","22","77","0","6","0","5"
"927.7000000476837","d","2","1","1","178","7","51","0","0","6","0","5"
"1040.4000000953674","f","2","1","1","179","54","73","90","0","6","0","5"
"1263.5999999046326","k","3","0","2","180","4","62","70","0","6","1","5"
"928.4000000953674","f","3","1","2","181","60","1","17","1","6","0","5"
"1143.2999999523163","k","0","0","-1","182","1","30","26","0","6","0","5"
"823.0999999046326","k","0","0","-1","183","6","28","61","1","6","0","5"
"1225.9000000953674","k","0","0","-1","184","32","70","35","0","7","0","5"
"813.9000000953674","f","3","1","2","185","71","56","46","0","7","0","5"
"1128.2999999523163","f","2","1","1","186","28","56","63","0","7","0","5"
"1903.5","k","0","0","-1","187","33","82","62","1","7","0","5"
"872.2000000476837","f","3","1","2","188","78","42","8","1","7","0","5"
"null","null","-1","0","-1","189","17","0","42","1","7","0","5"
"719.7999999523163","k","3","0","2","190","15","62","45","1","7","1","5"
"808","j","0","0","-1","191","48","72","26","0","7","1","5"
"865.2999999523163","f","2","1","1","192","41","77","97","0","7","1","5"
"878.0999999046326","f","3","1","2","193","56","32","54","1","7","0","5"
"944.5","f","2","1","1","194","26","25","48","0","7","0","5"
"983.5999999046326","f","3","1","2","195","61","42","84","0","7","1","5"
"1303","k","3","0","2","196","17","60","21","0","7","1","5"
"951.3999998569489","f","2","1","1","197","76","3","65","1","7","1","5"
"1711.2999999523163","k","0","0","-1","198","90","4","29","1","7","0","5"
"824.2999999523163","f","2","1","1","199","14","50","23","0","7","1","5"
"1095.2999999523163","k","0","0","-1","200","17","21","62","1","7","0","5"
"1223.2999999523163","k","3","0","2","201","74","97","6","1","7","1","5"
"1102.3999998569489","k","3","0","2","202","33","70","23","1","7","1","5"
"896.1000001430511","f","2","1","1","203","85","7","17","0","7","1","5"
"1667.2000000476837","d","3","1","2","204","74","40","85","0","8","1","5"
"1008.2999999523163","f","4","1","0","205","86","74","94","1","8","0","5"
"958.6999998092651","f","4","1","0","206","66","45","31","0","8","0","5"
"1256","f","2","1","1","207","64","6","27","1","8","1","5"
"951","f","3","1","2","208","50","92","75","0","8","1","5"
"1583.5","k","0","0","-1","209","56","18","86","0","8","0","5"
"823.8999998569489","k","0","0","-1","210","98","25","8","0","8","0","5"
"848.7000000476837","j","0","0","-1","211","45","66","4","1","8","1","5"
"888.2000000476837","f","2","1","1","212","66","96","5","1","8","1","5"
"1150.2000000476837","k","3","0","2","213","55","33","46","0","8","1","5"
"1111.7999999523163","k","0","0","-1","214","78","19","41","0","8","0","5"
"1207.7000000476837","k","0","0","-1","215","16","67","2","0","8","0","5"
"991.6999998092651","k","0","0","-1","216","68","90","40","1","8","0","5"
"752.3999998569489","f","2","1","1","217","56","59","95","0","8","1","5"
"999.2999999523163","k","3","0","2","218","44","66","60","1","8","1","5"
"671.7000000476837","f","3","1","2","219","85","81","30","1","8","1","5"
"1071.7000000476837","f","2","1","1","220","47","68","26","0","8","0","5"
"919.4000000953674","k","0","0","-1","221","19","36","21","1","8","0","5"
"743.2999999523163","k","0","0","-1","222","23","91","13","1","8","0","5"
"903","f","3","1","2","223","93","71","73","1","8","1","5"
"1377.0999999046326","k","0","0","-1","224","2","45","18","0","9","0","5"
"1432.7000000476837","f","4","1","0","225","67","15","10","1","9","0","5"
"null","null","-1","0","-1","226","36","56","63","1","9","1","5"
"847.2000000476837","f","2","1","1","227","99","88","78","0","9","1","5"
"1352.7000000476837","j","0","0","-1","228","35","16","93","0","9","1","5"
"399.2000000476837","d","2","1","1","229","49","86","15","1","9","0","5"
"967.2000000476837","j","0","0","-1","230","47","66","41","1","9","1","5"
"984.0999999046326","f","2","1","1","231","43","11","25","0","9","1","5"
"952.7000000476837","f","2","1","1","232","13","7","18","1","9","1","5"
"1054.7999999523163","f","2","1","1","233","93","59","15","1","9","1","5"
"null","null","-1","0","-1","234","17","15","58","0","9","0","5"
"829.9000000953674","f","2","1","1","235","18","50","30","0","9","0","5"
"791.5","k","0","0","-1","236","82","63","39","1","9","0","5"
"959.4000000953674","k","0","0","-1","237","2","0","47","1","9","0","5"
"887.2999999523163","j","3","0","2","238","36","47","35","1","9","0","5"
"903.8999998569489","f","3","1","2","239","36","19","24","0","9","1","5"
"953.0999999046326","f","3","1","2","240","85","47","33","0","9","0","5"
"1142.8999998569489","k","0","0","-1","241","32","64","11","0","9","0","5"
"1079.7999999523163","k","3","0","2","242","3","82","89","0","9","1","5"
"743.2999999523163","f","3","1","2","243","38","64","44","1","9","1","5"
