"rt","key_press","reward","type","marble","trial_num","stim_1","stim_2","change_index","block","changed","marble_set"
"6204.39999961853","d","3","1","2","1","22","12","0","0","0","5"
"508.90000009536743","f","2","1","1","2","90","87","0","0","0","5"
"4420.799999713898","d","2","1","1","3","51","57","0","0","0","5"
"85.30000019073486","d","2","1","1","4","72","57","0","0","0","5"
"1141.3000001907349","f","3","1","2","5","79","72","0","0","0","5"
"1884.2999997138977","f","2","1","1","6","10","69","0","0","0","5"
"364.40000009536743","d","2","1","1","7","9","64","0","0","0","5"
"77.59999990463257","f","3","1","2","8","41","62","0","0","0","5"
"1445.3000001907349","d","2","1","1","9","15","22","0","0","0","5"
"1069.7000002861023","d","2","1","1","10","26","52","0","0","0","5"
"460.5","f","3","1","2","11","80","25","0","0","0","5"
"197.09999990463257","d","2","1","1","12","29","47","0","0","0","5"
"765.1999998092651","f","3","1","2","13","95","41","0","0","0","5"
"437.7999997138977","f","3","1","2","14","63","89","0","0","0","5"
"1053.8000001907349","f","2","1","1","15","28","46","0","0","0","5"
"13.299999713897705","d","3","1","2","16","16","75","0","0","0","5"
"229.19999980926514","f","4","1","0","17","9","96","0","0","0","5"
"805.3000001907349","f","2","1","1","18","97","45","0","0","0","5"
"628.7999997138977","f","3","1","2","19","11","47","0","0","0","5"
"877.5","f","4","1","0","20","79","17","0","0","0","5"
"17820.099999904633","j","0","0","-1","21","55","51","0","0","1","5"
"13.300000190734863","j","0","0","-1","22","67","89","1","0","1","5"
"1957.3000001907349","j","3","0","2","23","65","68","1","0","0","5"
"45.5","k","3","0","2","24","82","27","0","0","1","5"
"1045.3000001907349","j","3","0","2","25","51","52","0","0","0","5"
"885.3000001907349","j","0","0","-1","26","72","4","1","0","1","5"
"188.90000009536743","j","0","0","-1","27","52","8","1","0","1","5"
"1269.5999999046326","k","3","0","2","28","66","87","1","0","1","5"
"252.90000009536743","k","0","0","-1","29","44","2","1","0","0","5"
"133.39999961853027","j","3","0","2","30","24","85","0","0","0","5"
"845.2000002861023","j","0","0","-1","31","34","97","0","0","1","5"
"941","j","3","0","2","32","46","50","0","0","0","5"
"604.6000003814697","j","0","0","-1","33","99","39","1","0","1","5"
"2189.2000002861023","j","3","0","2","34","86","82","0","0","0","5"
"982.2000002861023","j","3","0","2","35","65","76","0","0","0","5"
"3725.2000002861023","j","0","0","-1","36","50","69","0","0","1","5"
"1573.1999998092651","j","3","0","2","37","28","16","0","0","0","5"
"797.2999997138977","k","0","0","-1","38","82","67","1","0","0","5"
"1764.7999997138977","k","0","0","-1","39","1","30","1","0","0","5"
"1141.1999998092651","j","3","0","2","40","48","33","1","0","0","5"
"38404.5","","","","","","","","","","",""
"4957.799999713898","","","","","","","","","","",""
"2638.7000002861023","","","","","","","","","","",""
"null","null","-1","0","-1","44","18","86","1","0","0","5"
"null","null","-1","1","-1","45","39","88","1","0","1","5"
"null","null","-1","1","-1","46","68","57","0","0","1","5"
"50","j","0","0","-1","47","66","98","0","0","1","5"
"null","null","-1","1","-1","48","87","5","1","0","0","5"
"1453.8999996185303","j","3","0","2","49","54","45","1","0","0","5"
"null","null","-1","1","-1","50","5","7","1","0","1","5"
"null","null","-1","1","-1","51","48","3","1","0","1","5"
"null","null","-1","1","-1","52","49","85","0","0","1","5"
"null","null","-1","0","-1","53","63","66","0","0","1","5"
"null","null","-1","0","-1","54","52","74","1","0","0","5"
"null","null","-1","0","-1","55","31","42","0","0","0","5"
"null","null","-1","1","-1","56","55","28","1","0","0","5"
"null","null","-1","1","-1","57","43","23","0","0","1","5"
"1247.6999998092651","j","3","0","2","58","9","86","0","0","0","5"
"null","null","-1","1","-1","59","88","98","1","0","0","5"
"null","null","-1","0","-1","60","10","51","1","0","0","5"
"1007.5999999046326","j","0","0","-1","61","60","62","0","0","1","5"
"1264.6999998092651","j","0","0","-1","62","21","3","0","0","1","5"
"null","null","-1","1","-1","63","33","70","0","0","0","5"
"1626.8000001907349","j","0","0","-1","64","38","25","0","1","1","5"
"null","null","-1","1","-1","65","79","2","1","1","1","5"
"951.5999999046326","j","0","0","-1","66","64","30","0","1","1","5"
"753.2999997138977","j","0","0","-1","67","18","17","0","1","1","5"
"null","null","-1","1","-1","68","28","29","0","1","1","5"
"null","null","-1","1","-1","69","39","74","1","1","1","5"
"974.8000001907349","j","3","0","2","70","97","33","1","1","0","5"
"null","null","-1","1","-1","71","2","36","1","1","1","5"
"null","null","-1","0","-1","72","58","17","0","1","0","5"
"null","null","-1","1","-1","73","87","9","1","1","1","5"
"null","null","-1","1","-1","74","99","39","1","1","1","5"
"null","null","-1","1","-1","75","55","47","0","1","0","5"
"1116.5","k","0","0","-1","76","61","20","1","1","0","5"
"null","null","-1","1","-1","77","58","38","0","1","0","5"
"911.5999999046326","k","0","0","-1","78","78","61","1","1","0","5"
"1009.0999999046326","j","3","0","2","79","20","32","0","1","0","5"
"null","null","-1","1","-1","80","9","77","0","1","0","5"
"1045.0999999046326","j","3","0","2","81","40","39","1","1","0","5"
"1272.6000003814697","k","0","0","-1","82","20","12","0","1","0","5"
"null","null","-1","1","-1","83","30","11","1","1","1","5"
"1042.6999998092651","j","3","0","2","84","69","9","0","2","0","5"
"1071.1000003814697","k","0","0","-1","85","83","53","1","2","0","5"
"1031.1000003814697","j","0","0","-1","86","12","78","0","2","1","5"
"904","j","0","0","-1","87","90","17","0","2","1","5"
"null","null","-1","1","-1","88","44","46","1","2","1","5"
"1288.5999999046326","k","0","0","-1","89","35","1","1","2","0","5"
"null","null","-1","1","-1","90","14","64","0","2","0","5"
"983.8999996185303","k","3","0","2","91","56","76","1","2","1","5"
"982.4000000953674","k","3","0","2","92","76","87","1","2","1","5"
"null","null","-1","1","-1","93","81","22","0","2","1","5"
"null","null","-1","1","-1","94","12","7","1","2","0","5"
"null","null","-1","1","-1","95","47","3","1","2","1","5"
"1110.8999996185303","j","3","0","2","96","23","94","0","2","0","5"
"871.9000000953674","j","3","0","2","97","22","65","0","2","0","5"
"null","null","-1","1","-1","98","29","80","0","2","1","5"
"null","null","-1","1","-1","99","35","20","0","2","0","5"
"null","null","-1","1","-1","100","50","52","1","2","0","5"
"null","null","-1","1","-1","101","30","2","1","2","0","5"
"null","null","-1","1","-1","102","57","80","1","2","1","5"
"1046.3000001907349","j","0","0","-1","103","54","89","0","2","1","5"
"1824.6999998092651","k","3","0","2","104","24","79","1","3","1","5"
"null","null","-1","1","-1","105","92","65","0","3","1","5"
"null","null","-1","1","-1","106","58","6","1","3","1","5"
"null","null","-1","1","-1","107","67","14","1","3","0","5"
"null","null","-1","1","-1","108","46","40","1","3","1","5"
"null","null","-1","1","-1","109","63","13","0","3","1","5"
"1477.5999999046326","k","0","0","-1","110","61","47","1","3","0","5"
"null","null","-1","1","-1","111","32","91","0","3","1","5"
"1134.5999999046326","j","0","0","-1","112","15","25","1","3","1","5"
"null","null","-1","1","-1","113","17","51","0","3","1","5"
"895.3999996185303","j","3","0","2","114","31","14","0","3","0","5"
"null","null","-1","1","-1","115","67","20","1","3","0","5"
"1064.0999999046326","j","0","0","-1","116","86","9","0","3","1","5"
"976.6999998092651","k","0","0","-1","117","25","56","1","3","0","5"
"null","null","-1","1","-1","118","63","61","0","3","0","5"
"1069.9000000953674","k","0","0","-1","119","58","20","1","3","0","5"
"921","j","3","0","2","120","93","67","0","3","0","5"
"1048.2999997138977","j","3","0","2","121","21","25","0","3","0","5"
"null","null","-1","1","-1","122","42","88","1","3","0","5"
"1118.9000000953674","j","0","0","-1","123","7","15","0","3","1","5"
"null","null","-1","1","-1","124","19","7","1","4","1","5"
"null","null","-1","1","-1","125","32","87","0","4","0","5"
"37.90000009536743","j","0","0","-1","126","33","85","1","4","1","5"
"null","null","-1","1","-1","127","38","25","0","4","1","5"
"64.40000009536743","k","3","0","2","128","35","53","1","4","1","5"
"null","null","-1","1","-1","129","45","41","0","4","1","5"
"null","null","-1","1","-1","130","69","38","1","4","1","5"
"null","null","-1","1","-1","131","38","19","0","4","0","5"
"4.5","j","3","0","2","132","50","77","1","4","0","5"
"319.80000019073486","j","3","0","2","133","29","15","1","4","0","5"
"7.699999809265137","k","0","0","-1","134","16","71","0","4","0","5"
"40","j","0","0","-1","135","20","72","0","4","1","5"
"null","null","-1","1","-1","136","80","0","1","4","0","5"
"null","null","-1","1","-1","137","80","22","0","4","0","5"
"null","null","-1","1","-1","138","97","61","1","4","0","5"
"140.2000002861023","k","3","0","2","139","32","6","0","4","1","5"
"136.10000038146973","k","0","0","-1","140","44","30","0","4","0","5"
"null","null","-1","1","-1","141","73","1","0","4","1","5"
"48","j","0","0","-1","142","19","44","1","4","1","5"
"26","j","3","0","2","143","70","81","1","4","0","5"
"null","null","-1","0","-1","144","20","32","0","5","1","5"
"15.199999809265137","j","3","0","2","145","51","44","0","5","0","5"
"null","null","-1","1","-1","146","43","32","0","5","0","5"
"102.80000019073486","j","0","0","-1","147","7","63","1","5","1","5"
"null","null","-1","1","-1","148","68","2","0","5","1","5"
"145.09999990463257","k","3","0","2","149","7","24","1","5","1","5"
"null","null","-1","1","-1","150","13","54","1","5","0","5"
"null","null","-1","1","-1","151","30","40","1","5","1","5"
"38.700000286102295","k","0","0","-1","152","84","15","0","5","0","5"
"25.09999990463257","k","3","0","2","153","57","24","1","5","1","5"
"null","null","-1","1","-1","154","27","23","0","5","0","5"
"41.59999990463257","j","0","0","-1","155","44","11","1","5","1","5"
"216.5","k","0","0","-1","156","66","56","1","5","0","5"
"0.09999990463256836","k","3","0","2","157","24","11","0","5","1","5"
"null","null","-1","1","-1","158","14","62","1","5","0","5"
"null","null","-1","1","-1","159","22","30","0","5","0","5"
"null","null","-1","1","-1","160","23","30","0","5","1","5"
"null","null","-1","1","-1","161","21","69","0","5","0","5"
"null","null","-1","1","-1","162","19","60","1","5","0","5"
"1957.6999998092651","j","0","0","-1","163","86","1","1","5","1","5"
"null","null","-1","1","-1","164","7","35","0","6","1","5"
"null","null","-1","0","-1","165","67","71","1","6","1","5"
"null","null","-1","1","-1","166","62","34","1","6","0","5"
"null","null","-1","1","-1","167","81","77","0","6","1","5"
"null","null","-1","1","-1","168","36","76","1","6","0","5"
"null","null","-1","1","-1","169","1","40","0","6","0","5"
"224","j","3","0","2","170","19","9","0","6","0","5"
"105.59999990463257","j","0","0","-1","171","7","96","0","6","1","5"
"null","null","-1","1","-1","172","21","50","1","6","1","5"
"725.5","j","3","0","2","173","53","14","0","6","0","5"
"33.09999990463257","j","0","0","-1","174","32","48","0","6","1","5"
"17.40000009536743","j","3","0","2","175","44","80","0","6","0","5"
"null","null","-1","1","-1","176","75","2","0","6","0","5"
"null","null","-1","1","-1","177","74","66","1","6","0","5"
"80.2999997138977","j","0","0","-1","178","31","2","1","6","1","5"
"80.80000019073486","j","3","0","2","179","39","13","1","6","0","5"
"135.59999990463257","j","3","0","2","180","62","22","0","6","0","5"
"null","null","-1","1","-1","181","15","49","1","6","1","5"
"838.2000002861023","j","0","0","-1","182","20","9","1","6","1","5"
"null","null","-1","1","-1","183","80","92","1","6","1","5"
"67","j","3","0","2","184","3","83","1","7","0","5"
"null","null","-1","1","-1","185","81","22","0","7","0","5"
"null","null","-1","0","-1","186","84","34","0","7","0","5"
"null","null","-1","0","-1","187","27","75","0","7","0","5"
"null","null","-1","0","-1","188","38","88","0","7","0","5"
"null","null","-1","1","-1","189","46","51","1","7","0","5"
"null","null","-1","1","-1","190","31","56","1","7","1","5"
"926.4000000953674","f","2","1","1","191","77","50","0","7","1","5"
"150.69999980926514","j","0","0","-1","192","33","57","1","7","1","5"
"63.19999980926514","f","3","1","2","193","33","58","1","7","1","5"
"31.299999713897705","k","3","0","2","194","41","60","1","7","1","5"
"8.5","k","0","0","-1","195","46","72","0","7","0","5"
"41.200000286102295","f","2","1","1","196","60","53","1","7","0","5"
"54.90000009536743","k","0","0","-1","197","70","55","0","7","0","5"
"128","d","2","1","1","198","45","72","0","7","1","5"
"200.80000019073486","f","3","1","2","199","4","54","0","7","1","5"
"56.200000286102295","j","0","0","-1","200","88","71","0","7","1","5"
"176.80000019073486","f","3","1","2","201","34","12","1","7","0","5"
"113.59999990463257","f","3","1","2","202","33","82","1","7","1","5"
"161.2000002861023","j","0","0","-1","203","35","97","1","7","1","5"
"null","null","-1","1","-1","204","44","27","0","8","1","5"
"null","null","-1","0","-1","205","87","20","1","8","1","5"
"null","null","-1","0","-1","206","55","43","1","8","0","5"
"null","null","-1","1","-1","207","54","33","1","8","1","5"
"null","null","-1","1","-1","208","37","82","0","8","0","5"
"null","null","-1","1","-1","209","76","43","1","8","0","5"
"1090","j","3","0","2","210","69","28","0","8","0","5"
"89.2999997138977","k","3","0","2","211","67","9","0","8","1","5"
"null","null","-1","1","-1","212","17","2","0","8","0","5"
"22.800000190734863","j","0","0","-1","213","14","91","0","8","1","5"
"18.300000190734863","f","2","1","1","214","94","30","1","8","1","5"
"39.59999990463257","d","2","1","1","215","6","65","1","8","1","5"
"48.299999713897705","j","0","0","-1","216","59","64","0","8","1","5"
"1440.6999998092651","d","2","1","1","217","68","40","0","8","0","5"
"127.30000019073486","k","0","0","-1","218","42","18","1","8","0","5"
"24.40000009536743","k","3","0","2","219","10","6","0","8","1","5"
"0.09999990463256836","f","4","1","0","220","53","30","1","8","0","5"
"120.40000009536743","d","2","1","1","221","5","13","0","8","1","5"
"135","j","3","0","2","222","70","97","1","8","0","5"
"9.400000095367432","j","3","0","2","223","55","91","1","8","0","5"
"890.1999998092651","j","0","0","-1","224","64","52","1","9","1","5"
"111.80000019073486","j","3","0","2","225","50","15","0","9","0","5"
"null","null","-1","1","-1","226","94","37","1","9","1","5"
"null","null","-1","1","-1","227","94","1","0","9","1","5"
"139.2999997138977","j","3","0","2","228","43","95","1","9","0","5"
"null","null","-1","1","-1","229","83","87","0","9","1","5"
"null","null","-1","1","-1","230","40","15","0","9","1","5"
"101.5","j","3","0","2","231","61","27","1","9","0","5"
"271.09999990463257","k","0","0","-1","232","73","31","0","9","0","5"
"70.90000009536743","j","3","0","2","233","77","52","0","9","0","5"
"null","null","-1","1","-1","234","59","43","0","9","0","5"
"null","null","-1","1","-1","235","77","15","1","9","1","5"
"25.59999990463257","k","3","0","2","236","30","76","1","9","1","5"
"null","null","-1","1","-1","237","44","43","1","9","0","5"
"null","null","-1","1","-1","238","3","75","0","9","1","5"
"null","null","-1","1","-1","239","84","21","1","9","1","5"
"138.90000009536743","j","0","0","-1","240","89","82","0","9","1","5"
"184.09999990463257","j","3","0","2","241","3","68","0","9","0","5"
"1849.8000001907349","j","3","0","2","242","53","70","1","9","0","5"
"null","null","-1","1","-1","243","17","4","1","9","0","5"
