"rt","key_press","reward","type","marble","trial_num","stim_1","stim_2","change_index","block","changed","marble_set"
"2505","f","2","1","2","1","71","51","0","0","0","0"
"1228","d","4","1","0","2","10","82","0","0","0","0"
"1197","f","2","1","2","3","50","66","0","0","0","0"
"1026","d","3","1","1","4","94","54","0","0","0","0"
"704","d","2","1","2","5","44","90","0","0","0","0"
"1126","d","2","1","2","6","17","14","0","0","0","0"
"795","d","2","1","2","7","37","12","0","0","0","0"
"475","f","2","1","2","8","82","30","0","0","0","0"
"1064","d","4","1","0","9","50","61","0","0","0","0"
"914","d","3","1","1","10","63","79","0","0","0","0"
"204","d","3","1","1","11","74","94","0","0","0","0"
"241","f","2","1","2","12","19","32","0","0","0","0"
"1082","d","4","1","0","13","45","73","0","0","0","0"
"609","d","4","1","0","14","67","28","0","0","0","0"
"829","d","2","1","2","15","75","17","0","0","0","0"
"386","d","4","1","0","16","61","98","0","0","0","0"
"492","d","3","1","1","17","88","70","0","0","0","0"
"412","f","2","1","2","18","45","96","0","0","0","0"
"20","f","2","1","2","19","88","9","0","0","0","0"
"276","d","2","1","2","20","95","60","0","0","0","0"
"7579","j","0","0","-1","21","67","61","0","0","1","0"
"1724","k","0","0","-1","22","58","70","1","0","0","0"
"2260","j","3","0","1","23","95","90","1","0","0","0"
"4041","k","3","0","1","24","63","98","0","0","1","0"
"2714","j","0","0","-1","25","54","65","1","0","1","0"
"175","j","0","0","-1","26","89","44","0","0","1","0"
"40","k","0","0","-1","27","15","98","0","0","0","0"
"141","j","0","0","-1","28","39","88","1","0","1","0"
"75","j","3","0","1","29","89","29","0","0","0","0"
"136","j","0","0","-1","30","61","15","0","0","1","0"
"1","k","0","0","-1","31","6","20","0","0","0","0"
"26","k","3","0","1","32","82","78","1","0","1","0"
"1887","j","3","0","1","33","7","79","0","0","0","0"
"3004","j","3","0","1","34","79","5","0","0","0","0"
"1648","j","3","0","1","35","49","3","1","0","0","0"
"1907","k","3","0","1","36","59","23","1","0","1","0"
"2467","k","3","0","1","37","63","27","1","0","1","0"
"2042","k","0","0","-1","38","92","50","1","0","0","0"
"2493","k","0","0","-1","39","90","43","0","0","0","0"
"2728","j","0","0","-1","40","80","49","1","0","1","0"
"11447","","","","","","","","","","",""
"3350","","","","","","","","","","",""
"1807","j","3","0","1","43","13","20","1","0","0","0"
"15","j","0","0","-1","44","70","52","1","0","1","0"
"168","f","2","1","2","45","54","61","1","0","0","0"
"13","k","0","0","-1","46","48","62","0","0","0","0"
"40","f","3","1","1","47","53","57","0","0","1","0"
"77","k","0","0","-1","48","75","78","1","0","0","0"
"16","f","2","1","2","49","65","6","1","0","1","0"
"40","d","3","1","1","50","47","92","1","0","1","0"
"106","d","2","1","2","51","11","77","1","0","1","0"
"4","f","2","1","2","52","55","0","0","0","0","0"
"118","k","0","0","-1","53","85","6","0","0","0","0"
"92","d","3","1","1","54","58","3","0","0","1","0"
"131","d","3","1","1","55","57","82","1","0","1","0"
"88","k","3","0","1","56","3","93","0","0","1","0"
"29","k","0","0","-1","57","14","35","0","0","0","0"
"107","j","3","0","1","58","74","52","0","0","0","0"
"52","f","2","1","2","59","54","71","0","0","0","0"
"74","j","0","0","-1","60","55","89","0","0","1","0"
"123","d","4","1","0","61","61","70","1","0","1","0"
"107","j","3","0","1","62","54","41","1","0","0","0"
"47","j","0","0","-1","63","61","88","0","1","1","0"
"126","j","3","0","1","64","14","94","0","1","0","0"
"123","d","2","1","2","65","25","43","1","1","0","0"
"72","f","4","1","0","66","73","10","0","1","1","0"
"1","f","2","1","2","67","95","29","1","1","0","0"
"75","k","0","0","-1","68","18","40","1","1","0","0"
"87","j","0","0","-1","69","39","72","0","1","1","0"
"55","d","2","1","2","70","84","69","1","1","0","0"
"7","f","2","1","2","71","59","86","0","1","1","0"
"39","j","0","0","-1","72","79","98","0","1","1","0"
"35","d","4","1","0","73","79","25","0","1","1","0"
"79","j","0","0","-1","74","53","50","1","1","1","0"
"150","k","0","0","-1","75","24","80","0","1","0","0"
"3","j","3","0","1","76","13","14","1","1","0","0"
"70","j","0","0","-1","77","60","8","1","1","1","0"
"33","k","3","0","1","78","36","89","1","1","1","0"
"187","d","2","1","2","79","74","84","1","1","0","0"
"155","d","4","1","0","80","17","75","0","1","1","0"
"50","d","2","1","2","81","4","54","1","1","0","0"
"42","d","2","1","2","82","44","63","0","1","0","0"
"107","j","0","0","-1","83","81","88","0","2","1","0"
"65","k","0","0","-1","84","82","93","0","2","0","0"
"62","j","3","0","1","85","11","37","0","2","0","0"
"743","d","3","1","1","86","25","31","0","2","0","0"
"76","d","2","1","2","87","7","1","0","2","1","0"
"1510","k","3","0","1","88","65","72","1","2","1","0"
"72","f","2","1","2","89","63","95","1","2","0","0"
"169","j","3","0","1","90","8","39","1","2","0","0"
"171","j","3","0","1","91","88","74","1","2","0","0"
"76","d","2","1","2","92","41","87","1","2","1","0"
"214","d","3","1","1","93","52","21","0","2","1","0"
"286","j","0","0","-1","94","7","37","1","2","1","0"
"176","d","2","1","2","95","94","71","0","2","1","0"
"223","d","3","1","1","96","86","29","1","2","1","0"
"289","j","3","0","1","97","74","53","1","2","0","0"
"265","k","3","0","1","98","54","34","1","2","1","0"
"165","j","0","0","-1","99","22","18","0","2","1","0"
"170","d","2","1","2","100","32","35","0","2","0","0"
"241","d","4","1","0","101","14","26","1","2","0","0"
"249","d","2","1","2","102","20","25","0","2","0","0"
"31","d","2","1","2","103","14","78","0","3","1","0"
"30","d","3","1","1","104","67","13","1","3","1","0"
"49","j","3","0","1","105","64","75","1","3","0","0"
"55","k","0","0","-1","106","98","13","0","3","0","0"
"75","f","3","1","1","107","71","75","0","3","0","0"
"63","f","3","1","1","108","46","66","1","3","1","0"
"151","f","2","1","2","109","18","12","1","3","1","0"
"233","d","2","1","2","110","52","89","1","3","0","0"
"7","d","4","1","0","111","12","52","1","3","0","0"
"77","j","0","0","-1","112","70","66","1","3","1","0"
"17","j","3","0","1","113","25","40","0","3","0","0"
"15","j","0","0","-1","114","79","47","0","3","1","0"
"171","d","3","1","1","115","94","22","1","3","0","0"
"102","j","3","0","1","116","84","95","1","3","0","0"
"69","d","2","1","2","117","69","64","0","3","1","0"
"210","j","3","0","1","118","96","40","0","3","0","0"
"18","j","0","0","-1","119","98","85","1","3","1","0"
"5","d","3","1","1","120","14","47","0","3","0","0"
"218","j","0","0","-1","121","21","48","0","3","1","0"
"7","j","0","0","-1","122","52","86","0","3","1","0"
"207","j","0","0","-1","123","25","86","0","4","1","0"
"124","d","2","1","2","124","71","6","1","4","0","0"
"121","j","0","0","-1","125","15","81","0","4","1","0"
"83","d","2","1","2","126","95","61","1","4","1","0"
"189","d","2","1","2","127","64","89","0","4","0","0"
"200","j","0","0","-1","128","87","60","1","4","1","0"
"231","d","2","1","2","129","38","39","0","4","1","0"
"84","j","3","0","1","130","3","59","0","4","0","0"
"51","d","2","1","2","131","77","25","1","4","0","0"
"215","d","2","1","2","132","77","97","0","4","1","0"
"384","d","2","1","2","133","41","35","1","4","0","0"
"28","d","3","1","1","134","38","6","0","4","0","0"
"197","j","0","0","-1","135","81","71","0","4","1","0"
"125","j","3","0","1","136","19","13","1","4","0","0"
"280","j","3","0","1","137","86","72","1","4","0","0"
"174","j","0","0","-1","138","86","22","1","4","1","0"
"120","j","3","0","1","139","14","1","0","4","0","0"
"119","j","0","0","-1","140","22","94","0","4","1","0"
"364","d","2","1","2","141","83","84","1","4","1","0"
"15","d","2","1","2","142","23","4","1","4","0","0"
"121","k","0","0","-1","143","15","80","0","5","0","0"
"12","j","3","0","1","144","82","28","0","5","0","0"
"15","j","3","0","1","145","29","94","1","5","0","0"
"232","d","2","1","2","146","6","55","1","5","0","0"
"199","j","0","0","-1","147","13","78","1","5","1","0"
"136","j","0","0","-1","148","77","50","0","5","1","0"
"93","d","4","1","0","149","7","73","1","5","1","0"
"222","d","3","1","1","150","90","25","0","5","1","0"
"70","j","0","0","-1","151","63","1","0","5","1","0"
"91","d","3","1","1","152","5","78","1","5","0","0"
"119","j","3","0","1","153","61","28","0","5","0","0"
"220","d","4","1","0","154","98","95","0","5","0","0"
"49","j","0","0","-1","155","15","33","0","5","1","0"
"6","d","3","1","1","156","67","80","0","5","0","0"
"123","d","3","1","1","157","98","46","1","5","1","0"
"256","d","2","1","2","158","46","61","1","5","1","0"
"122","d","2","1","2","159","23","52","1","5","0","0"
"18","j","3","0","1","160","14","11","1","5","0","0"
"130","j","0","0","-1","161","89","88","1","5","1","0"
"114","d","4","1","0","162","75","57","0","5","1","0"
"171","d","3","1","1","163","33","70","1","6","0","0"
"136","d","2","1","2","164","8","35","1","6","0","0"
"125","j","0","0","-1","165","23","67","0","6","1","0"
"7","d","3","1","1","166","19","36","1","6","0","0"
"38","k","3","0","1","167","94","49","1","6","1","0"
"45","d","2","1","2","168","43","79","0","6","1","0"
"91","j","3","0","1","169","99","97","1","6","0","0"
"294","j","0","0","-1","170","75","6","0","6","1","0"
"113","k","3","0","1","171","84","5","0","6","1","0"
"56","k","0","0","-1","172","35","64","0","6","0","0"
"56","k","0","0","-1","173","47","21","1","6","0","0"
"59","d","3","1","1","174","36","50","0","6","0","0"
"39","d","3","1","1","175","97","35","0","6","0","0"
"107","d","3","1","1","176","98","6","0","6","0","0"
"57","d","3","1","1","177","42","44","0","6","1","0"
"201","k","3","0","1","178","34","20","1","6","1","0"
"278","d","3","1","1","179","86","85","1","6","1","0"
"276","k","3","0","1","180","19","81","1","6","1","0"
"160","k","0","0","-1","181","15","6","0","6","0","0"
"206","d","2","1","2","182","5","63","1","6","1","0"
"217","j","0","0","-1","183","22","20","1","7","1","0"
"109","j","3","0","1","184","75","86","0","7","0","0"
"202","d","2","1","2","185","61","10","0","7","1","0"
"11","d","2","1","2","186","25","62","0","7","0","0"
"19","j","0","0","-1","187","34","6","0","7","1","0"
"236","k","0","0","-1","188","4","82","1","7","0","0"
"158","j","0","0","-1","189","21","76","1","7","1","0"
"338","d","3","1","1","190","44","53","0","7","1","0"
"109","k","3","0","1","191","85","95","1","7","1","0"
"288","d","4","1","0","192","46","21","1","7","0","0"
"154","d","2","1","2","193","90","31","1","7","0","0"
"76","j","3","0","1","194","10","76","0","7","0","0"
"183","d","4","1","0","195","14","63","1","7","0","0"
"190","j","0","0","-1","196","86","13","0","7","1","0"
"332","d","3","1","1","197","89","32","1","7","1","0"
"63","j","0","0","-1","198","66","16","0","7","1","0"
"561","d","2","1","2","199","74","86","1","7","0","0"
"107","d","3","1","1","200","89","86","1","7","0","0"
"287","d","3","1","1","201","78","47","0","7","1","0"
"187","j","3","0","1","202","24","60","0","7","0","0"
"476","j","3","0","1","203","91","27","1","8","0","0"
"1","j","3","0","1","204","13","96","0","8","0","0"
"156","k","0","0","-1","205","73","27","1","8","0","0"
"347","d","2","1","2","206","63","75","1","8","0","0"
"54","d","2","1","2","207","51","40","1","8","0","0"
"667","d","2","1","2","208","61","8","0","8","1","0"
"158","d","3","1","1","209","20","30","1","8","1","0"
"436","d","3","1","1","210","22","45","1","8","0","0"
"null","null","-1","0","-1","211","40","67","0","8","1","0"
"549","d","2","1","2","212","24","75","1","8","1","0"
"232","j","3","0","1","213","41","1","0","8","0","0"
"52","j","0","0","-1","214","29","20","1","8","1","0"
"294","j","0","0","-1","215","64","21","0","8","1","0"
"208","j","3","0","1","216","13","65","0","8","0","0"
"99","j","3","0","1","217","79","41","1","8","0","0"
"250","d","2","1","2","218","87","42","0","8","1","0"
"190","j","0","0","-1","219","10","97","0","8","1","0"
"141","d","3","1","1","220","55","88","1","8","0","0"
"233","d","4","1","0","221","58","30","0","8","1","0"
"727","d","3","1","1","222","28","23","0","8","1","0"
"247","j","3","0","1","223","44","33","1","9","0","0"
"217","j","0","0","-1","224","14","74","0","9","1","0"
"327","d","2","1","2","225","26","12","0","9","0","0"
"243","d","2","1","2","226","96","75","0","9","0","0"
"344","d","2","1","2","227","53","19","1","9","1","0"
"286","j","0","0","-1","228","28","78","0","9","1","0"
"150","d","2","1","2","229","81","44","1","9","0","0"
"273","d","2","1","2","230","25","31","1","9","1","0"
"264","d","4","1","0","231","10","82","1","9","0","0"
"295","j","3","0","1","232","85","77","1","9","0","0"
"207","j","3","0","1","233","83","54","0","9","0","0"
"383","d","2","1","2","234","69","6","0","9","1","0"
"122","d","3","1","1","235","20","77","1","9","1","0"
"153","j","0","0","-1","236","26","6","0","9","1","0"
"280","d","3","1","1","237","16","70","0","9","0","0"
"61","j","3","0","1","238","39","87","1","9","0","0"
"47","j","0","0","-1","239","43","31","0","9","1","0"
"553","d","2","1","2","240","95","49","0","9","1","0"
"199","j","0","0","-1","241","12","64","1","9","1","0"
"127","j","3","0","1","242","32","82","1","9","0","0"
