"rt","key_press","reward","type","marble","trial_num","stim_1","stim_2","new_stim","change_index","block","changed","marble_set"
"1075","d","2","1","1","1","89","40","11","0","0","0","2"
"31","d","2","1","1","2","36","86","29","0","0","0","2"
"13","d","3","1","0","3","97","20","58","0","0","0","2"
"37","d","4","1","2","4","4","44","62","0","0","0","2"
"260","d","2","1","1","5","16","90","53","0","0","0","2"
"82","d","3","1","0","6","94","81","45","0","0","0","2"
"32","d","2","1","1","7","80","16","17","0","0","0","2"
"217","d","2","1","1","8","55","73","18","0","0","0","2"
"170","d","4","1","2","9","17","90","57","0","0","0","2"
"233","d","2","1","1","10","8","21","17","0","0","0","2"
"264","d","3","1","0","11","78","52","14","0","0","0","2"
"216","d","2","1","1","12","12","34","14","0","0","0","2"
"92","d","2","1","1","13","21","24","71","0","0","0","2"
"123","d","4","1","2","14","50","49","96","0","0","0","2"
"194","d","4","1","2","15","39","68","17","0","0","0","2"
"265","d","4","1","2","16","40","68","16","0","0","0","2"
"479","d","2","1","1","17","22","23","3","0","0","0","2"
"232","d","2","1","1","18","4","5","58","0","0","0","2"
"74","d","3","1","0","19","67","0","49","0","0","0","2"
"374","d","2","1","1","20","86","71","57","0","0","0","2"
"29","k","0","0","-1","21","82","23","42","0","0","0","2"
"203","k","0","0","-1","22","45","8","36","0","0","0","2"
"106","k","3","0","0","23","69","87","34","0","0","1","2"
"153","k","3","0","0","24","89","4","26","1","0","1","2"
"203","k","0","0","-1","25","34","7","49","0","0","0","2"
"11","k","0","0","-1","26","46","94","84","1","0","0","2"
"262","k","3","0","0","27","29","37","54","0","0","1","2"
"78","k","3","0","0","28","76","11","64","0","0","1","2"
"107","k","3","0","0","29","14","39","4","0","0","1","2"
"92","k","0","0","-1","30","26","32","51","1","0","0","2"
"311","k","0","0","-1","31","5","74","85","1","0","0","2"
"306","k","3","0","0","32","3","0","31","1","0","1","2"
"201","k","3","0","0","33","91","86","55","0","0","1","2"
"200","k","0","0","-1","34","68","72","61","0","0","0","2"
"108","j","3","0","0","35","52","42","37","1","0","0","2"
"92","j","3","0","0","36","19","44","9","1","0","0","2"
"19","j","0","0","-1","37","70","40","76","1","0","1","2"
"120","j","0","0","-1","38","74","95","21","1","0","1","2"
"170","j","0","0","-1","39","70","11","74","0","0","1","2"
"325","j","0","0","-1","40","3","87","7","1","0","1","2"
"4669","","","","","","","","","","","",""
"2920","","","","","","","","","","","",""
"78","k","3","0","0","43","51","75","28","0","0","1","2"
"279","k","0","0","-1","44","32","34","17","0","0","0","2"
"74","d","3","1","0","45","13","3","29","0","0","1","2"
"231","k","0","0","-1","46","28","69","31","1","0","0","2"
"20","k","3","0","0","47","79","62","51","0","0","1","2"
"245","k","0","0","-1","48","69","56","27","0","0","0","2"
"83","k","3","0","0","49","72","23","47","0","0","1","2"
"57","k","3","0","0","50","63","0","42","0","0","1","2"
"92","d","2","1","1","51","83","73","17","1","0","0","2"
"155","d","4","1","2","52","6","53","31","1","0","0","2"
"18","k","3","0","0","53","61","36","48","0","0","1","2"
"216","d","3","1","0","54","33","0","94","1","0","0","2"
"41","k","3","0","0","55","55","24","10","0","0","1","2"
"262","d","3","1","0","56","13","56","22","1","0","0","2"
"75","d","2","1","1","57","45","86","78","0","0","0","2"
"231","d","4","1","2","58","37","45","16","1","0","0","2"
"139","d","2","1","1","59","91","3","61","1","0","1","2"
"92","k","3","0","0","60","48","7","42","1","0","1","2"
"576","d","2","1","1","61","18","16","26","1","0","1","2"
"44","d","2","1","1","62","41","1","21","1","0","0","2"
"170","f","2","1","1","63","43","7","89","0","1","0","2"
"187","k","0","0","-1","64","61","92","95","0","1","0","2"
"62","f","2","1","1","65","8","80","46","1","1","1","2"
"50","k","3","0","0","66","91","39","48","0","1","1","2"
"12","f","3","1","0","67","53","94","58","1","1","1","2"
"92","k","3","0","0","68","74","62","16","1","1","1","2"
"231","f","3","1","0","69","50","1","68","1","1","1","2"
"231","k","3","0","0","70","17","86","58","1","1","1","2"
"370","f","2","1","1","71","42","62","14","1","1","0","2"
"50","f","4","1","2","72","48","9","12","1","1","0","2"
"295","k","3","0","0","73","44","63","13","1","1","1","2"
"75","k","3","0","0","74","33","25","66","0","1","1","2"
"154","f","3","1","0","75","55","49","94","0","1","1","2"
"68","k","0","0","-1","76","16","47","63","0","1","0","2"
"169","k","0","0","-1","77","60","65","90","0","1","0","2"
"186","f","3","1","0","78","86","33","1","0","1","1","2"
"76","k","0","0","-1","79","79","62","12","0","1","0","2"
"294","k","0","0","-1","80","79","56","25","1","1","0","2"
"50","d","3","1","0","81","99","28","51","1","1","0","2"
"451","d","4","1","2","82","53","98","79","0","1","0","2"
"123","d","3","1","0","83","94","90","72","0","2","1","2"
"217","k","0","0","-1","84","69","77","79","1","2","0","2"
"84","d","2","1","1","85","5","17","72","1","2","1","2"
"107","k","3","0","0","86","12","52","93","1","2","1","2"
"295","d","2","1","1","87","64","82","57","0","2","1","2"
"186","k","3","0","0","88","9","64","81","0","2","1","2"
"435","d","3","1","0","89","24","8","46","1","2","0","2"
"215","k","3","0","0","90","97","86","23","1","2","1","2"
"null","null","-1","1","-1","91","27","70","57","0","2","0","2"
"294","d","4","1","2","92","87","14","1","0","2","0","2"
"86","d","2","1","1","93","10","22","82","0","2","0","2"
"273","k","3","0","0","94","20","5","25","1","2","1","2"
"202","d","2","1","1","95","5","18","50","0","2","0","2"
"185","k","0","0","-1","96","4","79","35","1","2","0","2"
"294","d","2","1","1","97","7","36","21","1","2","1","2"
"230","k","0","0","-1","98","42","20","45","1","2","0","2"
"1075","k","0","0","-1","99","71","27","24","0","2","0","2"
"104","d","3","1","0","100","55","26","97","0","2","0","2"
"92","k","3","0","0","101","2","60","16","0","2","1","2"
"34","k","3","0","0","102","35","44","17","1","2","1","2"
"null","null","-1","0","-1","103","79","82","85","0","3","1","2"
"231","d","2","1","1","104","93","53","33","1","3","1","2"
"null","null","-1","0","-1","105","29","30","47","1","3","1","2"
"null","null","-1","0","-1","106","7","82","4","1","3","1","2"
"null","null","-1","0","-1","107","87","41","84","1","3","1","2"
"null","null","-1","0","-1","108","11","50","4","0","3","0","2"
"null","null","-1","0","-1","109","75","58","13","1","3","1","2"
"607","f","2","1","1","110","30","27","18","1","3","0","2"
"29","d","2","1","1","111","30","68","62","1","3","0","2"
"223","k","3","0","0","112","19","9","26","0","3","1","2"
"186","f","3","1","0","113","92","56","16","0","3","0","2"
"246","f","2","1","1","114","76","37","70","1","3","0","2"
"7","f","3","1","0","115","28","30","26","0","3","1","2"
"53","f","2","1","1","116","91","76","7","0","3","0","2"
"32","f","3","1","0","117","75","59","78","1","3","1","2"
"227","f","3","1","0","118","71","63","64","1","3","0","2"
"150","k","0","0","-1","119","73","49","30","0","3","0","2"
"123","f","2","1","1","120","63","16","34","0","3","0","2"
"1575","k","0","0","-1","121","36","74","84","0","3","0","2"
"106","k","3","0","0","122","97","21","46","0","3","1","2"
"null","null","-1","0","-1","123","67","45","13","0","4","1","2"
"1107","d","3","1","0","124","2","27","37","1","4","0","2"
"231","j","0","0","-1","125","1","52","91","1","4","1","2"
"248","j","3","0","0","126","58","24","92","0","4","0","2"
"264","f","2","1","1","127","95","22","51","1","4","0","2"
"92","f","3","1","0","128","82","98","35","0","4","0","2"
"247","f","2","1","1","129","77","55","67","0","4","1","2"
"279","k","0","0","-1","130","34","83","58","1","4","0","2"
"117","k","0","0","-1","131","7","87","62","0","4","0","2"
"null","null","-1","0","-1","132","42","61","26","1","4","0","2"
"733","k","3","0","0","133","47","54","72","1","4","1","2"
"null","null","-1","1","-1","134","20","22","29","0","4","0","2"
"null","null","-1","1","-1","135","52","66","37","1","4","1","2"
"null","null","-1","0","-1","136","95","43","54","1","4","0","2"
"168","f","2","1","1","137","26","57","69","1","4","1","2"
"855","f","2","1","1","138","60","5","71","1","4","0","2"
"77","f","3","1","0","139","90","88","57","0","4","1","2"
"134","j","0","0","-1","140","40","82","69","0","4","1","2"
"131","j","0","0","-1","141","2","64","62","0","4","1","2"
"712","f","2","1","1","142","28","27","50","0","4","1","2"
"324","k","0","0","-1","143","65","27","37","0","5","0","2"
"159","k","3","0","0","144","58","38","53","0","5","1","2"
"254","k","0","0","-1","145","55","43","40","1","5","0","2"
"168","k","0","0","-1","146","25","14","65","1","5","0","2"
"185","f","2","1","1","147","73","97","67","0","5","0","2"
"232","f","2","1","1","148","17","45","85","1","5","0","2"
"184","f","3","1","0","149","18","19","7","0","5","1","2"
"561","f","2","1","1","150","40","61","71","1","5","1","2"
"121","k","0","0","-1","151","74","5","49","1","5","0","2"
"7","f","2","1","1","152","78","37","12","0","5","0","2"
"15","k","0","0","-1","153","50","37","98","0","5","0","2"
"1639","f","4","1","2","154","65","87","94","1","5","1","2"
"902","f","3","1","0","155","65","54","81","0","5","1","2"
"326","k","0","0","-1","156","43","36","24","0","5","0","2"
"null","null","-1","0","-1","157","65","33","57","0","5","1","2"
"null","null","-1","1","-1","158","5","77","95","0","5","1","2"
"null","null","-1","1","-1","159","75","94","88","1","5","1","2"
"null","null","-1","1","-1","160","80","44","65","1","5","0","2"
"null","null","-1","0","-1","161","95","31","44","1","5","1","2"
"null","null","-1","0","-1","162","72","39","3","1","5","1","2"
"110","d","3","1","0","163","6","65","38","1","6","1","2"
"156","d","3","1","0","164","68","51","77","1","6","1","2"
"544","k","0","0","-1","165","81","76","32","0","6","0","2"
"106","k","3","0","0","166","38","59","2","0","6","1","2"
"201","d","2","1","1","167","55","18","98","1","6","0","2"
"null","null","-1","1","-1","168","88","48","50","1","6","1","2"
"1501","k","0","0","-1","169","37","71","25","1","6","0","2"
"747","k","3","0","0","170","33","74","50","1","6","1","2"
"null","null","-1","1","-1","171","70","50","92","1","6","1","2"
"122","d","2","1","1","172","42","50","40","0","6","0","2"
"50","j","3","0","0","173","96","73","50","1","6","0","2"
"232","j","0","0","-1","174","23","17","96","0","6","1","2"
"137","d","4","1","2","175","39","67","78","0","6","1","2"
"919","d","3","1","0","176","97","38","54","0","6","0","2"
"247","j","0","0","-1","177","24","91","49","1","6","1","2"
"1294","d","2","1","1","178","56","2","15","0","6","0","2"
"null","null","-1","1","-1","179","54","69","9","0","6","1","2"
"null","null","-1","0","-1","180","12","42","92","0","6","0","2"
"230","k","0","0","-1","181","51","95","19","1","6","0","2"
"null","null","-1","0","-1","182","39","6","96","0","6","0","2"
"201","d","2","1","1","183","15","4","36","0","7","0","2"
"265","d","4","1","2","184","53","74","95","0","7","1","2"
"263","f","3","1","0","185","84","83","29","1","7","0","2"
"133","k","3","0","0","186","78","12","70","1","7","1","2"
"309","k","3","0","0","187","6","48","95","0","7","1","2"
"7","f","3","1","0","188","95","91","94","0","7","0","2"
"183","k","3","0","0","189","52","21","38","0","7","1","2"
"561","f","4","1","2","190","98","92","66","0","7","0","2"
"435","f","2","1","1","191","12","72","31","1","7","0","2"
"11","k","3","0","0","192","18","93","20","0","7","1","2"
"12","k","3","0","0","193","23","15","11","1","7","1","2"
"380","k","0","0","-1","194","36","41","97","0","7","0","2"
"null","null","-1","0","-1","195","83","20","65","1","7","0","2"
"null","null","-1","1","-1","196","67","73","43","1","7","1","2"
"null","null","-1","1","-1","197","27","78","33","1","7","0","2"
"null","null","-1","1","-1","198","59","29","44","1","7","1","2"
"null","null","-1","0","-1","199","71","47","94","1","7","1","2"
"null","null","-1","1","-1","200","53","17","74","0","7","1","2"
"null","null","-1","0","-1","201","6","50","96","0","7","0","2"
"null","null","-1","0","-1","202","58","48","40","1","7","0","2"
"107","d","4","1","2","203","96","70","2","0","8","0","2"
"159","d","3","1","0","204","51","7","3","1","8","0","2"
"157","d","3","1","0","205","43","68","77","0","8","1","2"
"137","k","3","0","0","206","87","59","86","0","8","1","2"
"170","d","2","1","1","207","86","63","19","1","8","0","2"
"325","j","3","0","0","208","84","34","59","1","8","0","2"
"86","k","0","0","-1","209","77","67","6","0","8","0","2"
"389","d","3","1","0","210","88","17","18","1","8","1","2"
"1021","k","3","0","0","211","20","8","13","1","8","1","2"
"20","k","0","0","-1","212","86","61","84","0","8","0","2"
"1576","f","4","1","2","213","37","77","11","1","8","0","2"
"90","k","0","0","-1","214","76","84","19","0","8","0","2"
"1357","f","2","1","1","215","54","11","84","1","8","1","2"
"null","null","-1","0","-1","216","78","72","16","1","8","1","2"
"null","null","-1","0","-1","217","90","7","27","0","8","1","2"
"null","null","-1","1","-1","218","55","68","74","1","8","1","2"
"null","null","-1","1","-1","219","33","86","71","1","8","0","2"
"null","null","-1","0","-1","220","78","60","28","0","8","1","2"
"null","null","-1","0","-1","221","44","52","68","0","8","0","2"
"null","null","-1","1","-1","222","33","48","17","0","8","1","2"
"249","k","0","0","-1","223","90","68","45","1","9","0","2"
"230","k","0","0","-1","224","85","68","94","1","9","0","2"
"45","d","4","1","2","225","1","34","0","0","9","1","2"
"1091","k","3","0","0","226","7","68","74","0","9","1","2"
"147","k","3","0","0","227","4","92","70","0","9","1","2"
"null","null","-1","1","-1","228","7","49","10","0","9","0","2"
"null","null","-1","1","-1","229","28","55","46","1","9","1","2"
"null","null","-1","0","-1","230","51","86","84","0","9","0","2"
"null","null","-1","0","-1","231","76","85","75","0","9","1","2"
"null","null","-1","1","-1","232","94","25","51","1","9","0","2"
"null","null","-1","0","-1","233","80","88","27","0","9","0","2"
"null","null","-1","0","-1","234","81","69","94","1","9","1","2"
"null","null","-1","1","-1","235","64","96","12","0","9","1","2"
"null","null","-1","1","-1","236","1","12","5","0","9","0","2"
"null","null","-1","1","-1","237","84","61","2","1","9","0","2"
"null","null","-1","0","-1","238","54","90","49","1","9","1","2"
"null","null","-1","1","-1","239","6","97","31","0","9","1","2"
"null","null","-1","1","-1","240","15","43","61","1","9","1","2"
"311","k","0","0","-1","241","70","15","68","1","9","0","2"
"216","d","3","1","0","242","27","94","62","1","9","0","2"
