"rt","key_press","reward","type","marble","trial_num","stim_1","stim_2","new_stim","change_index","block","changed","marble_set"
"1017","d","2","1","1","1","21","13","5","0","0","0","5"
"442.0999994277954","f","2","1","1","2","22","91","93","0","0","0","5"
"125.90000057220459","d","3","1","2","3","79","46","69","0","0","0","5"
"627.8999996185303","f","2","1","1","4","89","12","72","0","0","0","5"
"207.20000076293945","d","2","1","1","5","55","45","91","0","0","0","5"
"51.89999961853027","f","3","1","2","6","23","20","75","0","0","0","5"
"455.30000019073486","f","2","1","1","7","42","65","43","0","0","0","5"
"235.89999961853027","f","2","1","1","8","62","34","85","0","0","0","5"
"154","f","2","1","1","9","57","26","21","0","0","0","5"
"276.5","d","4","1","0","10","9","51","28","0","0","0","5"
"141","f","3","1","2","11","67","4","97","0","0","0","5"
"241.69999980926514","f","4","1","0","12","94","61","32","0","0","0","5"
"0.3000001907348633","d","3","1","2","13","79","46","2","0","0","0","5"
"129.69999980926514","d","2","1","1","14","36","96","23","0","0","0","5"
"150.89999961853027","d","3","1","2","15","1","82","25","0","0","0","5"
"39.69999980926514","d","2","1","1","16","95","59","4","0","0","0","5"
"290.3999996185303","d","4","1","0","17","39","31","66","0","0","0","5"
"284.4000005722046","d","2","1","1","18","80","48","5","0","0","0","5"
"296.19999980926514","f","2","1","1","19","73","17","56","0","0","0","5"
"330.5","f","2","1","1","20","74","37","61","0","0","0","5"
"945.2999992370605","k","0","0","-1","21","89","33","55","0","0","0","5"
"971","k","3","0","2","22","71","75","36","1","0","1","5"
"447.1000003814697","k","3","0","2","23","28","75","71","1","0","1","5"
"334","k","0","0","-1","24","74","18","4","1","0","0","5"
"379.3999996185303","k","3","0","2","25","67","10","31","0","0","1","5"
"1307.5","k","0","0","-1","26","43","87","49","0","0","0","5"
"1175.7999992370605","k","0","0","-1","27","77","78","85","1","0","0","5"
"418.5","j","3","0","2","28","20","76","38","1","0","0","5"
"346.5999994277954","k","0","0","-1","29","85","34","29","1","0","0","5"
"321.70000076293945","k","3","0","2","30","15","89","71","0","0","1","5"
"325.1000003814697","j","3","0","2","31","19","45","65","1","0","0","5"
"247.5","k","0","0","-1","32","64","69","61","0","0","0","5"
"184.0999994277954","k","0","0","-1","33","67","69","26","1","0","0","5"
"175.20000076293945","k","0","0","-1","34","5","41","39","0","0","0","5"
"84","j","0","0","-1","35","98","81","83","0","0","1","5"
"231.30000019073486","k","3","0","2","36","54","76","91","0","0","1","5"
"227.19999980926514","k","0","0","-1","37","73","49","80","1","0","0","5"
"389.5999994277954","j","0","0","-1","38","29","55","82","1","0","1","5"
"329.5","j","0","0","-1","39","77","20","35","0","0","1","5"
"794.8999996185303","j","0","0","-1","40","55","19","78","1","0","1","5"
"4519.599999427795","","","","","","","","","","","",""
"5953.299999237061","","","","","","","","","","","",""
"2821.300000190735","","","","","","","","","","","",""
"1697.1999998092651","f","3","1","2","44","85","50","83","0","0","0","5"
"702.1999998092651","f","2","1","1","45","39","25","58","1","0","1","5"
"1068.8999996185303","j","0","0","-1","46","76","80","65","1","0","1","5"
"1551.0999994277954","d","2","1","1","47","55","85","48","0","0","0","5"
"null","null","-1","1","-1","48","70","32","36","0","0","0","5"
"941.3000001907349","j","3","0","2","49","16","76","11","0","0","0","5"
"1075.1999998092651","j","3","0","2","50","44","25","48","1","0","0","5"
"655.1000003814697","k","3","0","2","51","16","90","66","1","0","1","5"
"1754.1999998092651","d","2","1","1","52","35","62","85","1","0","1","5"
"1255","d","3","1","2","53","65","39","58","0","0","0","5"
"745.8000001907349","f","2","1","1","54","96","36","58","1","0","0","5"
"1179.7000007629395","j","3","0","2","55","29","84","9","0","0","0","5"
"1013","k","0","0","-1","56","75","66","85","1","0","0","5"
"662.5","j","0","0","-1","57","36","64","37","1","0","1","5"
"null","null","-1","0","-1","58","94","77","82","0","0","1","5"
"166.5","d","3","1","2","59","28","0","73","0","0","0","5"
"235.69999980926514","j","0","0","-1","60","39","34","83","0","0","1","5"
"417.5999994277954","d","3","1","2","61","53","94","91","0","0","1","5"
"23.700000762939453","f","2","1","1","62","78","2","11","1","0","1","5"
"455.0999994277954","j","0","0","-1","63","52","11","73","1","0","1","5"
"857.8000001907349","d","3","1","2","64","23","93","13","1","1","0","5"
"1240.5999994277954","j","0","0","-1","65","84","93","14","0","1","1","5"
"1756.8000001907349","d","4","1","0","66","75","8","88","1","1","0","5"
"627.6999998092651","d","2","1","1","67","12","39","17","1","1","0","5"
"761.2000007629395","j","0","0","-1","68","81","80","37","0","1","1","5"
"714.8999996185303","k","3","0","2","69","65","24","78","0","1","1","5"
"828.1000003814697","k","0","0","-1","70","99","10","50","1","1","0","5"
"null","null","-1","1","-1","71","56","77","5","1","1","0","5"
"1628.3000001907349","j","0","0","-1","72","81","86","97","1","1","1","5"
"1252.5","f","2","1","1","73","77","91","50","0","1","1","5"
"1103.5","d","2","1","1","74","45","0","34","0","1","1","5"
"485.8999996185303","d","3","1","2","75","5","7","77","0","1","0","5"
"700.8000001907349","j","3","0","2","76","2","14","95","1","1","0","5"
"732.8999996185303","j","3","0","2","77","42","33","39","1","1","0","5"
"816.8000001907349","d","2","1","1","78","75","88","54","1","1","1","5"
"1007.6999998092651","j","0","0","-1","79","71","58","36","0","1","1","5"
"1081.6999998092651","d","3","1","2","80","48","60","94","0","1","1","5"
"799.3999996185303","d","2","1","1","81","25","20","42","0","1","1","5"
"1035.6999998092651","j","3","0","2","82","41","80","39","0","1","0","5"
"443","j","3","0","2","83","27","55","35","1","1","0","5"
"1001.6999998092651","d","2","1","1","84","54","16","3","1","2","0","5"
"760.8000001907349","d","2","1","1","85","78","91","72","0","2","0","5"
"970","j","0","0","-1","86","1","14","62","0","2","1","5"
"646.0999994277954","j","0","0","-1","87","49","38","31","0","2","1","5"
"633.8999996185303","j","3","0","2","88","37","85","40","1","2","0","5"
"955.8999996185303","j","0","0","-1","89","90","84","68","1","2","1","5"
"230.5","j","0","0","-1","90","84","83","56","0","2","1","5"
"463.30000019073486","j","0","0","-1","91","5","47","52","1","2","1","5"
"429.5","j","3","0","2","92","37","74","14","0","2","0","5"
"613.8000001907349","k","3","0","2","93","19","30","79","1","2","1","5"
"893.5","f","2","1","1","94","82","77","20","0","2","0","5"
"538.5","d","2","1","1","95","18","58","74","1","2","0","5"
"538.5","f","2","1","1","96","9","88","65","1","2","0","5"
"754.5","d","2","1","1","97","67","91","15","0","2","1","5"
"511.1000003814697","d","2","1","1","98","41","30","4","0","2","1","5"
"720.1000003814697","j","0","0","-1","99","27","17","51","1","2","1","5"
"1140.1999998092651","f","2","1","1","100","64","68","89","0","2","0","5"
"471.8999996185303","d","2","1","1","101","30","4","74","1","2","1","5"
"680.4000005722046","f","2","1","1","102","69","32","52","0","2","0","5"
"961.7999992370605","j","3","0","2","103","47","94","8","1","2","0","5"
"591.5999994277954","j","0","0","-1","104","70","90","29","1","3","1","5"
"1132.4000005722046","f","2","1","1","105","60","59","35","0","3","1","5"
"899.8000001907349","d","4","1","0","106","32","19","52","1","3","1","5"
"457.8999996185303","d","2","1","1","107","92","59","62","0","3","1","5"
"1091.3999996185303","j","3","0","2","108","37","64","14","1","3","0","5"
"1066.5999994277954","d","4","1","0","109","92","52","79","1","3","0","5"
"null","null","-1","0","-1","110","83","14","33","0","3","0","5"
"669.8000001907349","j","3","0","2","111","15","79","55","0","3","0","5"
"309.19999980926514","j","0","0","-1","112","94","15","29","0","3","1","5"
"787.0999994277954","d","3","1","2","113","86","5","35","1","3","1","5"
"676.8000001907349","j","0","0","-1","114","38","98","7","0","3","1","5"
"955.5","f","2","1","1","115","58","25","5","1","3","1","5"
"470.5","d","2","1","1","116","49","23","58","1","3","0","5"
"650.5","f","2","1","1","117","54","98","59","0","3","1","5"
"905.6999998092651","j","3","0","2","118","34","22","9","1","3","0","5"
"1000.8000001907349","d","4","1","0","119","44","52","38","0","3","0","5"
"502.8999996185303","f","4","1","0","120","32","65","4","1","3","0","5"
"950.8999996185303","j","3","0","2","121","28","59","77","0","3","0","5"
"524.6000003814697","j","3","0","2","122","42","87","10","1","3","0","5"
"449.5999994277954","j","0","0","-1","123","24","80","90","0","3","1","5"
"502.6000003814697","j","3","0","2","124","31","95","13","0","4","0","5"
"1176.3000001907349","f","2","1","1","125","63","70","5","0","4","0","5"
"480.69999980926514","j","0","0","-1","126","10","65","13","0","4","1","5"
"472.5","j","0","0","-1","127","30","15","46","1","4","1","5"
"848.5","f","2","1","1","128","38","48","79","0","4","0","5"
"550.8000001907349","j","3","0","2","129","68","45","30","1","4","0","5"
"398.80000019073486","d","2","1","1","130","32","62","40","1","4","0","5"
"338.3999996185303","j","3","0","2","131","32","45","71","1","4","0","5"
"701.3000001907349","f","4","1","0","132","89","84","67","0","4","1","5"
"587.3000001907349","f","3","1","2","133","58","18","26","0","4","0","5"
"484.8999996185303","f","3","1","2","134","96","81","32","0","4","1","5"
"563.1999998092651","d","4","1","0","135","9","22","90","1","4","1","5"
"878.9000005722046","j","0","0","-1","136","33","80","59","1","4","1","5"
"500.3999996185303","j","0","0","-1","137","43","44","70","1","4","1","5"
"993","f","3","1","2","138","69","36","30","0","4","1","5"
"878.3000001907349","j","3","0","2","139","87","16","0","0","4","0","5"
"967.1000003814697","d","2","1","1","140","48","47","37","1","4","0","5"
"611.1000003814697","f","2","1","1","141","16","61","60","1","4","0","5"
"1122.3000001907349","j","0","0","-1","142","17","1","23","0","4","1","5"
"529.8999996185303","k","3","0","2","143","27","17","13","1","4","1","5"
"845.6000003814697","d","3","1","2","144","61","44","22","0","5","0","5"
"1076.1000003814697","j","3","0","2","145","61","62","42","1","5","0","5"
"488.6000003814697","k","3","0","2","146","91","72","92","0","5","1","5"
"423.8999996185303","j","3","0","2","147","30","80","13","0","5","0","5"
"912","d","2","1","1","148","68","4","55","0","5","0","5"
"882.0999994277954","j","0","0","-1","149","91","30","12","0","5","1","5"
"442.79999923706055","j","0","0","-1","150","71","76","18","1","5","1","5"
"974.0999994277954","f","2","1","1","151","40","28","17","0","5","0","5"
"740.3000001907349","d","3","1","2","152","19","78","60","1","5","0","5"
"1113.0999994277954","d","2","1","1","153","45","15","80","1","5","0","5"
"946.6999998092651","d","2","1","1","154","68","96","12","1","5","1","5"
"696.8999996185303","f","2","1","1","155","53","90","98","0","5","0","5"
"968.7999992370605","k","3","0","2","156","68","25","0","1","5","1","5"
"561.3000001907349","j","3","0","2","157","51","17","71","0","5","0","5"
"574.8999996185303","k","3","0","2","158","2","49","19","1","5","1","5"
"554.6999998092651","j","0","0","-1","159","30","79","89","1","5","1","5"
"877.9000005722046","d","3","1","2","160","54","56","60","0","5","1","5"
"1046.4000005722046","d","2","1","1","161","40","24","95","1","5","1","5"
"831.1000003814697","k","3","0","2","162","6","97","85","1","5","1","5"
"886.0999994277954","d","2","1","1","163","75","42","13","0","5","0","5"
"633.1999998092651","k","0","0","-1","164","66","96","5","1","6","0","5"
"818.5","f","3","1","2","165","41","55","81","0","6","1","5"
"710.5","d","4","1","0","166","64","75","31","0","6","0","5"
"1625.6999998092651","j","0","0","-1","167","60","42","76","0","6","1","5"
"null","null","-1","0","-1","168","2","35","18","1","6","1","5"
"504","j","3","0","2","169","98","75","30","0","6","0","5"
"977.4000005722046","d","3","1","2","170","14","21","12","0","6","0","5"
"58.30000019073486","j","3","0","2","171","62","13","49","0","6","0","5"
"1636.8000001907349","d","2","1","1","172","33","11","22","1","6","1","5"
"653.6999998092651","f","2","1","1","173","74","26","89","1","6","1","5"
"241.10000038146973","f","2","1","1","174","68","36","7","1","6","1","5"
"111.5","k","0","0","-1","175","51","25","66","0","6","0","5"
"125.19999980926514","j","3","0","2","176","76","7","9","1","6","0","5"
"null","null","-1","1","-1","177","43","69","44","0","6","1","5"
"754.5999994277954","j","3","0","2","178","37","15","10","1","6","0","5"
"523","k","0","0","-1","179","30","37","50","0","6","0","5"
"1106.6000003814697","d","3","1","2","180","75","41","91","1","6","0","5"
"573.0999994277954","d","3","1","2","181","20","18","49","0","6","1","5"
"412.1000003814697","d","2","1","1","182","91","5","23","1","6","1","5"
"409","j","0","0","-1","183","15","81","75","1","6","1","5"
"641.7000007629395","d","3","1","2","184","36","52","9","1","7","0","5"
"492.6000003814697","f","2","1","1","185","4","86","70","0","7","1","5"
"366.5","d","4","1","0","186","75","17","0","0","7","1","5"
"655.7000007629395","j","3","0","2","187","56","11","30","1","7","0","5"
"619.5999994277954","k","3","0","2","188","38","18","40","0","7","1","5"
"981","j","3","0","2","189","3","15","30","0","7","0","5"
"968.3000001907349","j","3","0","2","190","90","17","16","1","7","0","5"
"1156.3000001907349","f","3","1","2","191","85","48","32","0","7","0","5"
"826.1999998092651","j","0","0","-1","192","45","75","56","0","7","1","5"
"830.5","d","4","1","0","193","15","61","6","1","7","0","5"
"865.3000001907349","f","2","1","1","194","14","77","30","1","7","0","5"
"761.6999998092651","j","0","0","-1","195","94","19","77","1","7","1","5"
"1415.6000003814697","j","0","0","-1","196","80","70","0","0","7","1","5"
"392.69999980926514","d","2","1","1","197","67","35","15","1","7","0","5"
"730.5999994277954","f","2","1","1","198","95","47","18","1","7","1","5"
"627.1999998092651","d","2","1","1","199","74","13","86","1","7","0","5"
"1078","j","0","0","-1","200","5","54","69","0","7","1","5"
"273.4000005722046","j","0","0","-1","201","77","52","16","1","7","1","5"
"505.30000019073486","k","3","0","2","202","41","90","9","0","7","1","5"
"778.8999996185303","d","2","1","1","203","90","66","44","0","7","0","5"
"949.1999998092651","d","2","1","1","204","51","36","62","0","8","0","5"
"494.80000019073486","f","3","1","2","205","76","52","48","1","8","1","5"
"929.9000005722046","j","0","0","-1","206","58","47","94","0","8","1","5"
"517.7999992370605","k","0","0","-1","207","13","24","89","1","8","0","5"
"1101.1000003814697","d","3","1","2","208","35","43","15","0","8","1","5"
"720.6999998092651","d","3","1","2","209","22","33","75","0","8","0","5"
"863","f","3","1","2","210","46","71","40","1","8","0","5"
"null","null","-1","1","-1","211","51","54","18","0","8","0","5"
"null","null","-1","0","-1","212","16","72","43","1","8","1","5"
"794.8000001907349","f","2","1","1","213","75","80","69","1","8","1","5"
"692.1000003814697","k","3","0","2","214","98","91","93","0","8","1","5"
"561.6999998092651","k","0","0","-1","215","92","30","31","0","8","0","5"
"745","k","3","0","2","216","25","34","45","1","8","1","5"
"887.6999998092651","d","2","1","1","217","42","46","11","1","8","0","5"
"35.69999980926514","k","0","0","-1","218","10","79","22","1","8","0","5"
"514.6000003814697","j","3","0","2","219","80","24","45","0","8","0","5"
"649.1999998092651","d","4","1","0","220","65","67","51","0","8","1","5"
"399.19999980926514","k","3","0","2","221","29","75","20","0","8","1","5"
"746","f","2","1","1","222","72","73","19","1","8","0","5"
"261.5","j","0","0","-1","223","54","23","65","1","8","1","5"
"665.3000001907349","d","2","1","1","224","75","36","6","0","9","1","5"
"743","d","2","1","1","225","74","93","86","1","9","0","5"
"592.6999998092651","d","2","1","1","226","30","79","77","1","9","0","5"
"514","d","2","1","1","227","40","51","86","1","9","1","5"
"436.30000019073486","d","4","1","0","228","12","85","32","0","9","0","5"
"137.69999980926514","k","3","0","2","229","1","53","53","0","9","1","5"
"533","d","3","1","2","230","17","57","23","1","9","1","5"
"5.5","k","3","0","2","231","22","17","5","0","9","1","5"
"165.89999961853027","d","2","1","1","232","60","92","48","1","9","1","5"
"27","j","3","0","2","233","29","24","50","1","9","0","5"
"217","d","2","1","1","234","68","26","8","1","9","0","5"
"39.20000076293945","j","3","0","2","235","58","29","14","0","9","0","5"
"100.89999961853027","k","0","0","-1","236","61","6","37","0","9","0","5"
"40.19999980926514","j","3","0","2","237","13","72","42","1","9","0","5"
"248.30000019073486","k","3","0","2","238","55","60","72","0","9","1","5"
"46.19999980926514","j","0","0","-1","239","24","55","78","1","9","1","5"
"35.80000019073486","f","2","1","1","240","83","68","90","1","9","1","5"
"35.19999980926514","k","0","0","-1","241","68","47","87","0","9","0","5"
"26","d","2","1","1","242","41","29","92","0","9","0","5"
"72.09999942779541","j","0","0","-1","243","14","66","31","0","9","1","5"
