"rt","key_press","reward","type","marble","trial_num","stim_1","stim_2","change_index","block","changed","marble_set"
"1698","d","4","1","1","1","33","88","0","0","0","4"
"708","f","4","1","1","2","82","88","0","0","0","4"
"1042","f","2","1","0","3","40","61","0","0","0","4"
"316","d","4","1","1","4","1","34","0","0","0","4"
"496","f","2","1","0","5","78","91","0","0","0","4"
"463","d","2","1","0","6","12","61","0","0","0","4"
"460","f","3","1","2","7","66","42","0","0","0","4"
"622","d","3","1","2","8","13","37","0","0","0","4"
"415","f","2","1","0","9","64","35","0","0","0","4"
"408","d","2","1","0","10","33","68","0","0","0","4"
"2416","d","2","1","0","11","27","5","0","0","0","4"
"513","f","2","1","0","12","36","40","0","0","0","4"
"301","d","2","1","0","13","2","53","0","0","0","4"
"768","f","2","1","0","14","18","39","0","0","0","4"
"403","f","3","1","2","15","62","69","0","0","0","4"
"567","d","3","1","2","16","69","91","0","0","0","4"
"215","f","2","1","0","17","69","65","0","0","0","4"
"59","d","2","1","0","18","15","42","0","0","0","4"
"784","f","3","1","2","19","11","78","0","0","0","4"
"614","d","2","1","0","20","28","49","0","0","0","4"
"7010","k","3","0","2","21","39","40","1","0","1","4"
"4827","j","3","0","2","22","14","49","1","0","0","4"
"522","j","3","0","2","23","63","36","0","0","0","4"
"395","k","0","0","-1","24","3","88","0","0","0","4"
"0","k","3","0","2","25","63","80","1","0","1","4"
"43","k","3","0","2","26","46","7","1","0","1","4"
"8","j","3","0","2","27","89","51","0","0","0","4"
"129","k","3","0","2","28","87","90","0","0","1","4"
"57","j","3","0","2","29","34","49","0","0","0","4"
"103","k","0","0","-1","30","8","89","0","0","0","4"
"28","k","0","0","-1","31","47","57","1","0","0","4"
"57","k","0","0","-1","32","58","21","1","0","0","4"
"48","k","3","0","2","33","72","54","1","0","1","4"
"3","k","3","0","2","34","15","76","1","0","1","4"
"78","j","3","0","2","35","96","1","0","0","0","4"
"76","k","0","0","-1","36","63","48","0","0","0","4"
"234","j","0","0","-1","37","93","13","0","0","1","4"
"74","k","3","0","2","38","64","86","0","0","1","4"
"154","j","3","0","2","39","75","27","0","0","0","4"
"53","j","0","0","-1","40","35","6","1","0","1","4"
"5573","","","","","","","","","","",""
"4294","","","","","","","","","","",""
"103","k","3","0","2","43","15","67","1","0","1","4"
"1792","j","3","0","2","44","9","88","1","0","0","4"
"14","f","2","1","0","45","69","40","0","0","1","4"
"464","j","3","0","2","46","50","76","1","0","0","4"
"513","j","0","0","-1","47","96","26","0","0","1","4"
"250","k","3","0","2","48","11","40","1","0","1","4"
"1991","d","2","1","0","49","27","45","0","0","1","4"
"828","k","3","0","2","50","59","9","0","0","1","4"
"253","f","2","1","0","51","67","32","1","0","1","4"
"77","d","2","1","0","52","68","23","1","0","0","4"
"340","j","3","0","2","53","21","37","0","0","0","4"
"420","d","2","1","0","54","76","0","1","0","0","4"
"479","d","2","1","0","55","69","57","1","0","0","4"
"18","k","0","0","-1","56","66","54","0","0","0","4"
"238","f","3","1","2","57","89","35","0","0","1","4"
"376","d","2","1","0","58","85","69","0","0","0","4"
"513","f","3","1","2","59","8","34","0","0","1","4"
"1188","k","0","0","-1","60","14","97","1","0","0","4"
"205","j","3","0","2","61","34","90","1","0","0","4"
"509","f","3","1","2","62","47","71","0","0","1","4"
"287","k","0","0","-1","63","2","90","0","1","0","4"
"124","k","3","0","2","64","42","63","0","1","1","4"
"33","k","0","0","-1","65","15","36","0","1","0","4"
"539","k","0","0","-1","66","96","67","1","1","0","4"
"357","d","2","1","0","67","15","53","0","1","1","4"
"42","j","0","0","-1","68","48","30","1","1","1","4"
"76","k","3","0","2","69","32","29","0","1","1","4"
"168","j","3","0","2","70","30","4","0","1","0","4"
"1428","f","2","1","0","71","53","11","0","1","1","4"
"null","null","-1","1","-1","72","60","38","1","1","1","4"
"325","d","3","1","2","73","94","42","0","1","0","4"
"91","k","0","0","-1","74","76","81","1","1","0","4"
"1084","d","4","1","1","75","3","26","0","1","1","4"
"5","k","0","0","-1","76","53","21","1","1","0","4"
"136","k","0","0","-1","77","23","85","1","1","0","4"
"499","d","3","1","2","78","57","98","1","1","1","4"
"172","d","3","1","2","79","73","9","1","1","0","4"
"285","d","2","1","0","80","39","53","1","1","0","4"
"93","f","2","1","0","81","69","24","0","1","1","4"
"711","d","2","1","0","82","85","40","1","1","1","4"
"79","d","2","1","0","83","59","57","0","2","1","4"
"87","d","2","1","0","84","21","83","1","2","0","4"
"188","j","3","0","2","85","69","66","1","2","0","4"
"203","d","2","1","0","86","55","75","0","2","0","4"
"23","j","0","0","-1","87","14","84","0","2","1","4"
"321","k","3","0","2","88","12","85","1","2","1","4"
"154","j","0","0","-1","89","80","26","0","2","1","4"
"401","k","3","0","2","90","19","85","1","2","1","4"
"43","d","2","1","0","91","37","71","1","2","0","4"
"1054","d","2","1","0","92","44","67","1","2","0","4"
"29","k","0","0","-1","93","26","42","0","2","0","4"
"140","k","3","0","2","94","27","4","0","2","1","4"
"1900","f","2","1","0","95","58","48","1","2","1","4"
"883","f","2","1","0","96","18","7","0","2","0","4"
"219","k","0","0","-1","97","21","62","1","2","0","4"
"38","k","0","0","-1","98","41","80","0","2","0","4"
"285","f","4","1","1","99","57","1","1","2","1","4"
"716","f","4","1","1","100","65","17","1","2","1","4"
"281","f","2","1","0","101","33","40","0","2","1","4"
"14","k","0","0","-1","102","95","22","0","2","0","4"
"182","d","4","1","1","103","75","97","1","3","1","4"
"263","f","2","1","0","104","60","73","1","3","0","4"
"604","f","2","1","0","105","16","19","1","3","0","4"
"1228","d","2","1","0","106","95","52","0","3","1","4"
"null","null","-1","1","-1","107","88","89","0","3","1","4"
"234","f","2","1","0","108","46","12","1","3","0","4"
"387","k","0","0","-1","109","21","79","0","3","0","4"
"57","j","0","0","-1","110","58","88","1","3","1","4"
"175","j","0","0","-1","111","35","10","0","3","1","4"
"313","j","0","0","-1","112","54","15","1","3","1","4"
"192","d","3","1","2","113","20","45","1","3","0","4"
"184","d","4","1","1","114","39","83","1","3","0","4"
"88","k","0","0","-1","115","54","86","0","3","0","4"
"7","d","2","1","0","116","35","82","1","3","1","4"
"202","f","2","1","0","117","25","8","0","3","1","4"
"406","k","0","0","-1","118","18","74","0","3","0","4"
"385","k","3","0","2","119","13","51","0","3","1","4"
"221","j","3","0","2","120","44","38","0","3","0","4"
"210","j","0","0","-1","121","23","65","1","3","1","4"
"39","k","0","0","-1","122","97","94","0","3","0","4"
"388","f","2","1","0","123","17","21","1","4","1","4"
"463","j","3","0","2","124","71","53","0","4","0","4"
"59","d","2","1","0","125","85","67","0","4","1","4"
"20","f","2","1","0","126","61","74","1","4","1","4"
"141","d","2","1","0","127","57","6","0","4","1","4"
"296","j","3","0","2","128","86","56","1","4","0","4"
"102","d","4","1","1","129","67","46","1","4","0","4"
"317","k","0","0","-1","130","55","70","0","4","0","4"
"726","k","0","0","-1","131","69","93","1","4","0","4"
"70","d","2","1","0","132","55","18","1","4","0","4"
"207","d","2","1","0","133","43","84","0","4","0","4"
"231","j","0","0","-1","134","6","97","1","4","1","4"
"168","k","3","0","2","135","43","58","1","4","1","4"
"123","d","2","1","0","136","49","61","0","4","1","4"
"395","k","0","0","-1","137","23","89","0","4","0","4"
"613","k","3","0","2","138","39","73","0","4","1","4"
"486","f","2","1","0","139","90","48","1","4","1","4"
"140","j","3","0","2","140","50","4","0","4","0","4"
"88","j","3","0","2","141","96","8","0","4","0","4"
"309","d","2","1","0","142","40","32","1","4","1","4"
"233","j","3","0","2","143","6","31","1","5","0","4"
"171","d","4","1","1","144","75","65","0","5","1","4"
"448","f","3","1","2","145","87","47","1","5","1","4"
"579","f","2","1","0","146","59","80","0","5","1","4"
"463","j","0","0","-1","147","61","36","1","5","1","4"
"686","j","0","0","-1","148","53","58","0","5","1","4"
"451","j","3","0","2","149","59","76","0","5","0","4"
"669","j","3","0","2","150","54","1","0","5","0","4"
"479","j","3","0","2","151","92","44","0","5","0","4"
"540","f","2","1","0","152","39","45","1","5","1","4"
"604","f","3","1","2","153","17","62","1","5","0","4"
"77","j","3","0","2","154","34","85","1","5","0","4"
"422","f","4","1","1","155","55","79","1","5","1","4"
"562","d","2","1","0","156","76","35","1","5","0","4"
"231","d","2","1","0","157","64","91","0","5","0","4"
"154","k","3","0","2","158","66","40","1","5","1","4"
"364","f","2","1","0","159","12","59","1","5","0","4"
"383","d","2","1","0","160","59","9","0","5","1","4"
"248","j","0","0","-1","161","23","85","0","5","1","4"
"467","k","0","0","-1","162","9","22","0","5","0","4"
"17","k","0","0","-1","163","5","4","1","6","0","4"
"180","d","2","1","0","164","95","12","1","6","1","4"
"312","d","2","1","0","165","12","85","1","6","0","4"
"555","d","4","1","1","166","66","26","0","6","1","4"
"387","d","2","1","0","167","85","68","0","6","0","4"
"437","j","3","0","2","168","96","89","0","6","0","4"
"576","f","2","1","0","169","41","68","1","6","0","4"
"582","d","3","1","2","170","90","81","1","6","1","4"
"180","d","2","1","0","171","22","56","1","6","0","4"
"416","f","4","1","1","172","6","45","1","6","1","4"
"421","k","3","0","2","173","78","22","0","6","1","4"
"677","d","2","1","0","174","25","39","0","6","1","4"
"20","j","0","0","-1","175","98","64","0","6","1","4"
"477","f","2","1","0","176","84","32","1","6","1","4"
"862","j","0","0","-1","177","26","46","1","6","1","4"
"315","j","3","0","2","178","24","81","0","6","0","4"
"0","j","3","0","2","179","3","66","1","6","0","4"
"88","j","3","0","2","180","73","68","0","6","0","4"
"223","j","3","0","2","181","39","57","0","6","0","4"
"530","j","0","0","-1","182","61","8","0","6","1","4"
"314","j","0","0","-1","183","51","3","1","7","1","4"
"352","f","3","1","2","184","91","8","0","7","1","4"
"544","f","2","1","0","185","90","54","1","7","0","4"
"347","k","3","0","2","186","62","39","0","7","1","4"
"313","d","2","1","0","187","78","39","0","7","0","4"
"131","f","2","1","0","188","69","19","0","7","0","4"
"475","k","3","0","2","189","89","71","1","7","1","4"
"607","j","0","0","-1","190","77","94","0","7","1","4"
"466","j","3","0","2","191","82","19","1","7","0","4"
"129","d","2","1","0","192","79","82","1","7","1","4"
"49","k","0","0","-1","193","77","5","0","7","0","4"
"470","f","2","1","0","194","51","18","0","7","0","4"
"125","d","2","1","0","195","42","12","1","7","0","4"
"285","j","0","0","-1","196","47","78","0","7","1","4"
"168","f","4","1","1","197","8","87","1","7","0","4"
"609","k","3","0","2","198","27","79","1","7","1","4"
"46","d","2","1","0","199","8","90","0","7","0","4"
"341","j","0","0","-1","200","84","0","0","7","1","4"
"155","j","3","0","2","201","54","4","1","7","0","4"
"527","d","4","1","1","202","79","24","1","7","1","4"
"197","k","0","0","-1","203","28","88","1","8","0","4"
"376","d","2","1","0","204","76","57","1","8","1","4"
"480","k","3","0","2","205","30","68","0","8","1","4"
"94","k","3","0","2","206","66","49","0","8","1","4"
"420","k","3","0","2","207","4","74","1","8","1","4"
"559","k","0","0","-1","208","91","65","0","8","0","4"
"323","f","2","1","0","209","46","26","0","8","1","4"
"453","j","0","0","-1","210","98","93","1","8","1","4"
"556","f","3","1","2","211","25","58","0","8","0","4"
"4","f","3","1","2","212","2","56","1","8","0","4"
"156","d","2","1","0","213","27","73","1","8","0","4"
"602","j","3","0","2","214","52","65","0","8","0","4"
"311","k","3","0","2","215","2","23","0","8","1","4"
"42","j","3","0","2","216","98","71","0","8","0","4"
"52","f","2","1","0","217","61","29","1","8","1","4"
"6","d","2","1","0","218","97","46","0","8","1","4"
"670","k","3","0","2","219","23","83","1","8","1","4"
"259","f","4","1","1","220","14","9","1","8","0","4"
"243","d","3","1","2","221","49","71","1","8","0","4"
"308","d","2","1","0","222","8","28","0","8","0","4"
"442","d","3","1","2","223","98","90","0","9","1","4"
"25","f","2","1","0","224","4","70","1","9","1","4"
"201","d","3","1","2","225","47","76","0","9","0","4"
"279","k","3","0","2","226","38","53","0","9","1","4"
"165","j","0","0","-1","227","73","12","1","9","1","4"
"2","f","2","1","0","228","79","54","0","9","1","4"
"464","j","3","0","2","229","3","22","0","9","0","4"
"182","j","3","0","2","230","70","16","0","9","0","4"
"49","d","2","1","0","231","57","72","1","9","0","4"
"538","j","0","0","-1","232","20","19","1","9","1","4"
"305","k","3","0","2","233","4","72","1","9","1","4"
"401","k","3","0","2","234","63","7","1","9","1","4"
"50","d","2","1","0","235","84","54","1","9","0","4"
"450","k","3","0","2","236","48","95","0","9","1","4"
"297","d","3","1","2","237","58","66","1","9","0","4"
"262","f","3","1","2","238","16","5","1","9","0","4"
"608","f","3","1","2","239","90","29","1","9","1","4"
"438","k","0","0","-1","240","57","10","0","9","0","4"
"278","k","0","0","-1","241","57","10","0","9","0","4"
"466","f","2","1","0","242","35","29","0","9","0","4"
