"rt","key_press","reward","type","marble","trial_num","stim_1","stim_2","change_index","block","changed","marble_set"
"3817","d","2","1","1","1","10","85","0","0","0","2"
"1292","f","2","1","1","2","53","34","0","0","0","2"
"760","d","4","1","2","3","53","69","0","0","0","2"
"1055","f","4","1","2","4","2","64","0","0","0","2"
"635","f","2","1","1","5","20","34","0","0","0","2"
"882","d","4","1","2","6","87","95","0","0","0","2"
"2329","d","3","1","0","7","28","55","0","0","0","2"
"523","f","2","1","1","8","26","1","0","0","0","2"
"580","d","2","1","1","9","84","95","0","0","0","2"
"1471","f","2","1","1","10","55","84","0","0","0","2"
"321","f","4","1","2","11","27","17","0","0","0","2"
"139","f","2","1","1","12","10","26","0","0","0","2"
"213","d","2","1","1","13","92","93","0","0","0","2"
"735","d","2","1","1","14","59","9","0","0","0","2"
"117","f","2","1","1","15","5","36","0","0","0","2"
"397","f","3","1","0","16","78","71","0","0","0","2"
"483","f","2","1","1","17","85","19","0","0","0","2"
"601","f","2","1","1","18","10","37","0","0","0","2"
"312","f","2","1","1","19","31","29","0","0","0","2"
"420","d","3","1","0","20","29","76","0","0","0","2"
"10342","j","3","0","0","21","38","21","0","0","0","2"
"617","k","0","0","-1","22","58","91","1","0","0","2"
"2404","j","3","0","0","23","33","71","1","0","0","2"
"1251","k","0","0","-1","24","12","29","1","0","0","2"
"522","j","3","0","0","25","64","79","1","0","0","2"
"520","k","0","0","-1","26","94","82","1","0","0","2"
"1359","j","0","0","-1","27","87","71","0","0","1","2"
"1597","j","3","0","0","28","51","13","1","0","0","2"
"721","k","3","0","0","29","95","29","1","0","1","2"
"532","j","0","0","-1","30","86","59","0","0","1","2"
"438","k","3","0","0","31","52","98","0","0","1","2"
"579","k","0","0","-1","32","39","69","0","0","0","2"
"202","k","3","0","0","33","19","83","0","0","1","2"
"77","k","0","0","-1","34","64","11","0","0","0","2"
"42","j","0","0","-1","35","6","10","0","0","1","2"
"217","k","3","0","0","36","60","76","0","0","1","2"
"328","k","3","0","0","37","36","25","1","0","1","2"
"18","k","3","0","0","38","50","34","0","0","1","2"
"351","k","0","0","-1","39","9","33","1","0","0","2"
"64","k","0","0","-1","40","65","43","1","0","0","2"
"13196","","","","","","","","","","",""
"5403","","","","","","","","","","",""
"2406","","","","","","","","","","",""
"2097","","","","","","","","","","",""
"null","null","-1","1","-1","45","63","19","0","0","0","2"
"null","null","-1","0","-1","46","63","97","1","0","1","2"
"459","j","0","0","-1","47","68","33","0","0","1","2"
"null","null","-1","1","-1","48","41","3","1","0","1","2"
"923","f","2","1","1","49","99","27","1","0","1","2"
"853","d","4","1","2","50","35","18","1","0","0","2"
"1034","d","2","1","1","51","82","66","0","0","1","2"
"null","null","-1","0","-1","52","7","4","1","0","1","2"
"112","j","0","0","-1","53","73","15","1","0","1","2"
"703","f","2","1","1","54","23","57","0","0","0","2"
"1326","j","3","0","0","55","16","96","0","0","0","2"
"null","null","-1","0","-1","56","77","70","0","0","1","2"
"1052","k","0","0","-1","57","74","45","1","0","0","2"
"null","null","-1","0","-1","58","33","27","0","0","1","2"
"53","k","0","0","-1","59","43","84","0","0","0","2"
"1037","j","3","0","0","60","25","72","1","0","0","2"
"1074","f","2","1","1","61","35","8","0","0","1","2"
"332","d","3","1","0","62","67","42","0","0","0","2"
"866","f","2","1","1","63","65","20","1","0","0","2"
"880","d","3","1","0","64","94","29","1","0","0","2"
"1265","k","3","0","0","65","56","62","0","1","1","2"
"148","j","3","0","0","66","83","37","0","1","0","2"
"1117","f","2","1","1","67","83","71","1","1","0","2"
"1497","j","0","0","-1","68","73","11","0","1","1","2"
"292","j","3","0","0","69","88","84","1","1","0","2"
"994","k","3","0","0","70","16","36","1","1","1","2"
"1125","d","2","1","1","71","60","15","1","1","0","2"
"953","f","3","1","0","72","74","63","0","1","0","2"
"1162","j","3","0","0","73","13","20","0","1","0","2"
"899","f","2","1","1","74","33","52","0","1","1","2"
"null","null","-1","1","-1","75","66","2","0","1","1","2"
"859","j","0","0","-1","76","38","53","1","1","1","2"
"1508","j","0","0","-1","77","99","98","1","1","1","2"
"1135","f","2","1","1","78","60","44","0","1","1","2"
"1168","f","4","1","2","79","20","75","1","1","0","2"
"272","j","3","0","0","80","9","39","1","1","0","2"
"1392","d","2","1","1","81","29","19","1","1","1","2"
"997","k","0","0","-1","82","53","33","0","1","0","2"
"null","null","-1","1","-1","83","44","5","0","1","1","2"
"678","d","2","1","1","84","83","55","1","1","0","2"
"880","j","3","0","0","85","43","71","1","2","0","2"
"null","null","-1","1","-1","86","69","41","0","2","1","2"
"1680","j","0","0","-1","87","76","68","0","2","1","2"
"1031","d","2","1","1","88","13","93","0","2","1","2"
"1316","k","0","0","-1","89","54","46","1","2","0","2"
"922","f","2","1","1","90","32","91","0","2","0","2"
"1058","d","2","1","1","91","47","11","0","2","1","2"
"null","null","-1","1","-1","92","12","68","1","2","0","2"
"1002","f","4","1","2","93","90","40","1","2","1","2"
"1249","k","0","0","-1","94","90","74","1","2","0","2"
"926","f","4","1","2","95","86","17","1","2","0","2"
"null","null","-1","0","-1","96","68","74","0","2","1","2"
"1379","j","0","0","-1","97","53","13","0","2","1","2"
"1684","j","0","0","-1","98","14","59","1","2","1","2"
"654","k","0","0","-1","99","42","62","1","2","0","2"
"1063","f","3","1","0","100","50","55","1","2","0","2"
"null","null","-1","1","-1","101","55","26","1","2","1","2"
"37","d","2","1","1","102","33","4","0","2","0","2"
"1696","j","3","0","0","103","37","98","0","2","0","2"
"784","k","3","0","0","104","33","67","0","2","1","2"
"1499","d","2","1","1","105","92","13","0","3","0","2"
"1207","j","0","0","-1","106","65","36","1","3","1","2"
"1704","j","3","0","0","107","10","39","0","3","0","2"
"null","null","-1","1","-1","108","52","71","0","3","1","2"
"974","f","2","1","1","109","90","17","0","3","0","2"
"null","null","-1","1","-1","110","72","48","0","3","1","2"
"821","d","2","1","1","111","37","74","1","3","0","2"
"1995","j","3","0","0","112","38","68","1","3","0","2"
"942","f","3","1","0","113","97","58","1","3","1","2"
"1384","d","2","1","1","114","73","36","0","3","1","2"
"1389","k","0","0","-1","115","3","94","0","3","0","2"
"992","f","2","1","1","116","18","0","1","3","0","2"
"1063","k","3","0","0","117","11","38","1","3","1","2"
"607","j","3","0","0","118","8","70","0","3","0","2"
"986","k","3","0","0","119","38","81","1","3","1","2"
"891","j","0","0","-1","120","27","46","1","3","1","2"
"1620","j","3","0","0","121","82","71","1","3","0","2"
"1143","k","0","0","-1","122","38","6","1","3","0","2"
"1296","d","2","1","1","123","27","41","0","3","1","2"
"1225","d","3","1","0","124","28","79","0","3","1","2"
"926","d","3","1","0","125","13","71","1","4","1","2"
"994","f","4","1","2","126","47","1","1","4","0","2"
"938","d","2","1","1","127","54","8","0","4","0","2"
"1135","j","3","0","0","128","63","0","0","4","0","2"
"1080","j","3","0","0","129","96","33","0","4","0","2"
"1226","k","3","0","0","130","94","27","1","4","1","2"
"249","j","3","0","0","131","85","63","0","4","0","2"
"null","null","-1","1","-1","132","91","9","0","4","1","2"
"1319","k","0","0","-1","133","65","28","0","4","0","2"
"1240","j","0","0","-1","134","12","14","1","4","1","2"
"855","d","2","1","1","135","90","83","0","4","0","2"
"900","f","2","1","1","136","69","65","1","4","1","2"
"926","d","2","1","1","137","65","55","1","4","0","2"
"728","f","3","1","0","138","41","28","1","4","0","2"
"1579","j","0","0","-1","139","28","50","0","4","1","2"
"null","null","-1","1","-1","140","53","31","1","4","1","2"
"1150","j","0","0","-1","141","83","56","1","4","1","2"
"918","f","2","1","1","142","89","94","0","4","0","2"
"1139","j","0","0","-1","143","47","13","1","4","1","2"
"1270","j","0","0","-1","144","41","82","0","4","1","2"
"1082","j","3","0","0","145","41","85","0","5","0","2"
"1205","j","3","0","0","146","77","91","0","5","0","2"
"1053","d","4","1","2","147","35","57","0","5","0","2"
"1231","d","2","1","1","148","18","59","1","5","1","2"
"1052","j","0","0","-1","149","18","17","1","5","1","2"
"1113","d","2","1","1","150","51","39","0","5","1","2"
"1115","d","2","1","1","151","27","94","0","5","0","2"
"1416","j","0","0","-1","152","50","35","0","5","1","2"
"944","d","2","1","1","153","32","91","0","5","1","2"
"null","null","-1","0","-1","154","47","27","1","5","0","2"
"881","d","2","1","1","155","30","79","1","5","0","2"
"938","d","2","1","1","156","92","73","0","5","0","2"
"920","d","3","1","0","157","52","27","1","5","0","2"
"977","d","3","1","0","158","83","89","1","5","1","2"
"911","j","0","0","-1","159","59","87","1","5","1","2"
"1076","j","3","0","0","160","41","17","1","5","0","2"
"1072","j","0","0","-1","161","38","85","0","5","1","2"
"1257","d","3","1","0","162","68","80","1","5","1","2"
"null","null","-1","0","-1","163","32","30","0","5","1","2"
"906","j","3","0","0","164","77","25","1","5","0","2"
"997","f","3","1","0","165","25","74","1","6","1","2"
"575","k","0","0","-1","166","32","85","0","6","0","2"
"605","d","2","1","1","167","83","56","1","6","0","2"
"1202","j","3","0","0","168","47","12","1","6","0","2"
"907","j","0","0","-1","169","69","98","1","6","1","2"
"790","k","3","0","0","170","8","61","0","6","1","2"
"1205","k","3","0","0","171","23","91","0","6","1","2"
"845","k","0","0","-1","172","7","41","0","6","0","2"
"893","f","2","1","1","173","45","17","1","6","1","2"
"985","d","3","1","0","174","93","55","1","6","0","2"
"1027","d","4","1","2","175","14","41","0","6","1","2"
"1025","d","3","1","0","176","58","39","1","6","0","2"
"823","d","2","1","1","177","56","88","0","6","1","2"
"1586","j","3","0","0","178","18","62","0","6","0","2"
"807","d","2","1","1","179","41","42","0","6","0","2"
"1061","j","0","0","-1","180","84","52","0","6","1","2"
"859","d","2","1","1","181","42","70","1","6","0","2"
"1174","j","0","0","-1","182","83","23","0","6","1","2"
"832","d","2","1","1","183","6","67","1","6","0","2"
"1049","j","0","0","-1","184","80","74","1","6","1","2"
"925","f","2","1","1","185","95","56","1","7","0","2"
"744","j","0","0","-1","186","6","39","0","7","1","2"
"1878","j","3","0","0","187","21","58","0","7","0","2"
"null","null","-1","1","-1","188","37","35","0","7","1","2"
"1024","j","3","0","0","189","14","40","1","7","0","2"
"null","null","-1","1","-1","190","8","55","1","7","0","2"
"965","j","3","0","0","191","46","62","1","7","0","2"
"1068","j","0","0","-1","192","12","25","0","7","1","2"
"1014","f","2","1","1","193","25","45","0","7","0","2"
"1011","j","3","0","0","194","41","57","1","7","0","2"
"992","f","3","1","0","195","15","60","1","7","1","2"
"893","d","4","1","2","196","15","93","0","7","0","2"
"1446","j","0","0","-1","197","31","77","0","7","1","2"
"1266","d","3","1","0","198","71","35","0","7","1","2"
"1236","j","3","0","0","199","87","9","0","7","0","2"
"1303","d","2","1","1","200","92","82","0","7","1","2"
"1041","j","3","0","0","201","82","86","1","7","0","2"
"1180","j","0","0","-1","202","46","22","1","7","1","2"
"1088","d","2","1","1","203","33","53","1","7","1","2"
"942","d","2","1","1","204","77","64","1","7","1","2"
"845","f","2","1","1","205","46","73","1","8","0","2"
"1009","d","2","1","1","206","3","76","0","8","1","2"
"1207","j","3","0","0","207","7","49","0","8","0","2"
"1234","d","2","1","1","208","85","20","0","8","1","2"
"null","null","-1","0","-1","209","41","57","0","8","0","2"
"null","null","-1","0","-1","210","72","20","1","8","1","2"
"null","null","-1","0","-1","211","97","94","1","8","0","2"
"null","null","-1","0","-1","212","24","45","0","8","0","2"
"null","null","-1","1","-1","213","99","84","1","8","1","2"
"null","null","-1","0","-1","214","98","28","0","8","1","2"
"1795","j","3","0","0","215","20","22","0","8","0","2"
"null","null","-1","0","-1","216","92","50","0","8","1","2"
"1190","d","2","1","1","217","9","87","1","8","1","2"
"1967","f","2","1","1","218","61","80","1","8","1","2"
"null","null","-1","0","-1","219","55","60","0","8","0","2"
"null","null","-1","1","-1","220","76","34","1","8","0","2"
"null","null","-1","0","-1","221","24","43","1","8","0","2"
"1487","f","3","1","0","222","18","10","1","8","1","2"
"null","null","-1","1","-1","223","96","92","1","8","1","2"
"1095","d","2","1","1","224","39","94","0","8","0","2"
"1218","j","0","0","-1","225","94","74","1","9","1","2"
"1209","j","3","0","0","226","74","18","0","9","0","2"
"1160","f","3","1","0","227","87","64","0","9","1","2"
"1275","d","2","1","1","228","47","89","1","9","0","2"
"1201","j","3","0","0","229","24","44","1","9","0","2"
"1756","f","3","1","0","230","96","2","1","9","0","2"
"null","null","-1","0","-1","231","59","87","1","9","1","2"
"1232","d","3","1","0","232","47","0","1","9","0","2"
"1008","d","2","1","1","233","62","71","1","9","1","2"
"null","null","-1","0","-1","234","27","85","0","9","0","2"
"null","null","-1","1","-1","235","34","88","0","9","0","2"
"1522","j","3","0","0","236","74","48","0","9","0","2"
"1113","d","3","1","0","237","94","76","0","9","1","2"
"1454","j","0","0","-1","238","28","93","1","9","1","2"
"1534","j","3","0","0","239","56","98","0","9","0","2"
"1161","j","0","0","-1","240","9","74","1","9","1","2"
"1271","d","2","1","1","241","68","0","1","9","1","2"
"1148","d","2","1","1","242","92","31","0","9","1","2"
"1510","j","0","0","-1","243","3","54","0","9","1","2"
"1035","d","2","1","1","244","22","57","0","9","0","2"
