"rt","key_press","reward","type","marble","trial_num","stim_1","stim_2","change_index","block","changed","marble_set"
"8437.400000572205","d","2","1","2","1","4","59","0","0","0","0"
"510.30000019073486","d","2","1","2","2","51","95","0","0","0","0"
"78.80000019073486","d","4","1","0","3","53","27","0","0","0","0"
"77.39999961853027","d","3","1","1","4","70","71","0","0","0","0"
"268","d","4","1","0","5","19","15","0","0","0","0"
"163.19999980926514","d","2","1","2","6","33","74","0","0","0","0"
"68.40000057220459","d","2","1","2","7","62","11","0","0","0","0"
"8.699999809265137","d","3","1","1","8","46","65","0","0","0","0"
"61.5","d","2","1","2","9","68","83","0","0","0","0"
"52","d","2","1","2","10","82","84","0","0","0","0"
"144.80000019073486","d","3","1","1","11","66","68","0","0","0","0"
"211.80000019073486","d","2","1","2","12","26","81","0","0","0","0"
"253.30000019073486","d","3","1","1","13","18","88","0","0","0","0"
"174.30000019073486","d","4","1","0","14","96","24","0","0","0","0"
"421.80000019073486","d","2","1","2","15","73","40","0","0","0","0"
"32","d","3","1","1","16","71","3","0","0","0","0"
"168.5","d","3","1","1","17","17","1","0","0","0","0"
"279.80000019073486","d","2","1","2","18","95","25","0","0","0","0"
"236","d","2","1","2","19","44","95","0","0","0","0"
"675.6999998092651","d","3","1","1","20","26","98","0","0","0","0"
"4410.299999237061","k","3","0","1","21","23","75","0","0","1","0"
"287.6000003814697","k","0","0","-1","22","4","64","0","0","0","0"
"567.6999998092651","k","0","0","-1","23","83","69","1","0","0","0"
"128.19999980926514","k","3","0","1","24","19","67","0","0","1","0"
"199.9000005722046","j","3","0","1","25","47","46","0","0","0","0"
"10079.800000190735","j","0","0","-1","26","74","19","1","0","1","0"
"176.39999961853027","j","0","0","-1","27","62","78","0","0","1","0"
"144.9000005722046","j","0","0","-1","28","50","45","1","0","1","0"
"21804.400000572205","k","0","0","-1","29","28","59","0","0","0","0"
"4148.10000038147","k","3","0","1","30","94","43","1","0","1","0"
"1058.1999998092651","k","0","0","-1","31","91","17","1","0","0","0"
"415.80000019073486","k","3","0","1","32","56","26","0","0","1","0"
"1246","k","0","0","-1","33","92","85","1","0","0","0"
"321.0999994277954","j","0","0","-1","34","98","5","0","0","1","0"
"803.1000003814697","j","3","0","1","35","39","11","0","0","0","0"
"2545.5999994277954","k","0","0","-1","36","17","39","1","0","0","0"
"1277.6999998092651","j","0","0","-1","37","42","3","1","0","1","0"
"279.29999923706055","j","0","0","-1","38","57","70","1","0","1","0"
"474","j","0","0","-1","39","75","12","1","0","1","0"
"861.5","j","3","0","1","40","22","19","0","0","0","0"
"3034.699999809265","","","","","","","","","","",""
"2910.300000190735","","","","","","","","","","",""
"1742.7000007629395","k","3","0","1","43","86","54","0","0","1","0"
"null","null","-1","1","-1","44","5","47","1","0","1","0"
"null","null","-1","1","-1","45","35","93","0","0","0","0"
"481.5999994277954","d","3","1","1","46","24","80","1","0","1","0"
"73.19999980926514","d","4","1","0","47","75","49","0","0","1","0"
"219.39999961853027","d","2","1","2","48","42","83","0","0","1","0"
"null","null","-1","0","-1","49","87","29","0","0","0","0"
"920.3999996185303","j","3","0","1","50","28","17","1","0","0","0"
"861.4000005722046","k","3","0","1","51","20","22","1","0","1","0"
"353.5999994277954","k","0","0","-1","52","37","63","1","0","0","0"
"244.30000019073486","k","0","0","-1","53","36","8","1","0","0","0"
"null","null","-1","1","-1","54","29","82","0","0","1","0"
"null","null","-1","0","-1","55","23","60","0","0","1","0"
"null","null","-1","1","-1","56","37","88","0","0","0","0"
"203.60000038146973","k","0","0","-1","57","94","61","0","0","0","0"
"null","null","-1","1","-1","58","39","38","1","0","0","0"
"1712.7000007629395","k","3","0","1","59","32","71","0","0","1","0"
"1788.3000001907349","d","2","1","2","60","21","31","1","0","0","0"
"1525.1000003814697","k","3","0","1","61","82","86","1","0","1","0"
"1426.3000001907349","d","2","1","2","62","25","69","1","0","0","0"
"1707.5","d","2","1","2","63","39","49","1","1","1","0"
"1654.6000003814697","k","3","0","1","64","82","38","1","1","1","0"
"1430.3000001907349","k","0","0","-1","65","93","6","1","1","0","0"
"1530.0999994277954","d","3","1","1","66","79","36","1","1","0","0"
"null","null","-1","1","-1","67","4","23","0","1","1","0"
"1957.0999994277954","d","3","1","1","68","8","80","1","1","1","0"
"1756.5","k","3","0","1","69","45","5","0","1","1","0"
"1580.3999996185303","d","4","1","0","70","34","76","0","1","0","0"
"1957.5999994277954","k","3","0","1","71","98","12","1","1","1","0"
"1237.8999996185303","j","3","0","1","72","84","14","0","1","0","0"
"1363.0999994277954","k","3","0","1","73","65","98","0","1","1","0"
"1583","d","2","1","2","74","71","56","0","1","0","0"
"1499.9000005722046","k","0","0","-1","75","63","87","0","1","0","0"
"1267.2000007629395","k","0","0","-1","76","2","96","1","1","0","0"
"1611.6999998092651","d","2","1","2","77","95","22","1","1","1","0"
"1419.2999992370605","k","0","0","-1","78","5","58","1","1","0","0"
"1606.3999996185303","d","3","1","1","79","35","60","0","1","0","0"
"null","null","-1","1","-1","80","84","34","1","1","0","0"
"1419.0999994277954","d","3","1","1","81","83","8","0","1","1","0"
"1370","k","3","0","1","82","79","2","0","1","1","0"
"1786.5","d","2","1","2","83","31","20","1","2","1","0"
"null","null","-1","0","-1","84","21","60","1","2","0","0"
"1462.7999992370605","d","2","1","2","85","79","93","1","2","1","0"
"null","null","-1","1","-1","86","63","56","0","2","0","0"
"1391.3999996185303","k","3","0","1","87","85","92","1","2","1","0"
"1210.6999998092651","k","0","0","-1","88","1","91","0","2","0","0"
"1344.2999992370605","d","2","1","2","89","10","72","0","2","1","0"
"1304.5999994277954","k","3","0","1","90","47","19","0","2","1","0"
"1428.5","k","0","0","-1","91","3","9","0","2","0","0"
"1337.5","d","2","1","2","92","74","18","1","2","0","0"
"null","null","-1","1","-1","93","65","58","1","2","1","0"
"1460.5999994277954","d","2","1","2","94","22","34","0","2","0","0"
"1407.3000001907349","k","3","0","1","95","62","55","0","2","1","0"
"1841.6999998092651","j","0","0","-1","96","74","83","1","2","1","0"
"1607.5999994277954","d","2","1","2","97","73","44","1","2","0","0"
"1462.6000003814697","d","3","1","1","98","31","88","1","2","0","0"
"1359.8000001907349","k","3","0","1","99","46","61","0","2","1","0"
"1356","k","0","0","-1","100","70","26","0","2","0","0"
"1357.5","d","3","1","1","101","53","46","0","2","1","0"
"1399.5","k","0","0","-1","102","83","69","1","2","0","0"
"1558.3000001907349","d","2","1","2","103","77","8","0","3","0","0"
"1578.6999998092651","d","3","1","1","104","25","43","0","3","0","0"
"1335.1999998092651","k","0","0","-1","105","69","41","0","3","0","0"
"1234","k","3","0","1","106","87","63","1","3","1","0"
"1518.3999996185303","d","2","1","2","107","69","54","1","3","0","0"
"1278.6000003814697","k","0","0","-1","108","93","46","1","3","0","0"
"1198.5","k","3","0","1","109","82","43","1","3","1","0"
"1530.6999998092651","d","4","1","0","110","26","21","0","3","1","0"
"1741.8999996185303","d","4","1","0","111","99","38","0","3","1","0"
"1439.1000003814697","k","3","0","1","112","86","47","0","3","1","0"
"1780.3000001907349","k","3","0","1","113","4","6","0","3","1","0"
"null","null","-1","1","-1","114","97","47","1","3","0","0"
"1328.2999992370605","k","3","0","1","115","90","41","0","3","1","0"
"1290.8999996185303","d","2","1","2","116","29","21","0","3","0","0"
"1338","k","0","0","-1","117","36","63","1","3","0","0"
"1427.5","d","4","1","0","118","65","26","1","3","0","0"
"null","null","-1","1","-1","119","63","39","1","3","1","0"
"1615.3000001907349","d","4","1","0","120","67","87","0","3","1","0"
"1447.5999994277954","k","3","0","1","121","88","21","1","3","1","0"
"1283.8999996185303","k","0","0","-1","122","13","70","1","3","0","0"
"1509.8999996185303","d","2","1","2","123","2","43","0","4","1","0"
"1250.3999996185303","k","0","0","-1","124","93","69","1","4","0","0"
"1394.8000001907349","d","4","1","0","125","58","13","0","4","0","0"
"1200.1999998092651","k","0","0","-1","126","33","19","0","4","0","0"
"1396.6000003814697","d","3","1","1","127","13","64","1","4","1","0"
"1464.5999994277954","d","3","1","1","128","81","53","1","4","0","0"
"905.6000003814697","k","3","0","1","129","2","84","0","4","1","0"
"1290","d","2","1","2","130","82","15","0","4","1","0"
"1319.7000007629395","k","3","0","1","131","89","54","1","4","1","0"
"1128.6000003814697","k","3","0","1","132","46","78","1","4","1","0"
"1321.3999996185303","d","3","1","1","133","87","40","1","4","0","0"
"1123.3999996185303","k","0","0","-1","134","95","3","0","4","0","0"
"1086","k","0","0","-1","135","52","26","1","4","0","0"
"1396.1999998092651","d","2","1","2","136","86","73","1","4","1","0"
"1280.9000005722046","k","3","0","1","137","11","47","0","4","1","0"
"1287.1999998092651","k","0","0","-1","138","43","64","1","4","0","0"
"1355.5","d","4","1","0","139","3","42","0","4","1","0"
"1866.6000003814697","d","3","1","1","140","1","64","0","4","0","0"
"1640.5999994277954","d","2","1","2","141","3","67","1","4","0","0"
"1355.3999996185303","k","3","0","1","142","76","46","0","4","1","0"
"1656","d","3","1","1","143","74","59","0","5","0","0"
"1496.1000003814697","d","4","1","0","144","64","45","1","5","1","0"
"1440.6999998092651","k","0","0","-1","145","97","0","0","5","0","0"
"1440.5999994277954","d","2","1","2","146","75","37","0","5","0","0"
"null","null","-1","1","-1","147","3","8","1","5","1","0"
"1502","k","0","0","-1","148","7","95","1","5","0","0"
"1355.6999998092651","k","3","0","1","149","13","1","0","5","1","0"
"1840.3999996185303","j","3","0","1","150","82","24","1","5","0","0"
"1334.2000007629395","k","0","0","-1","151","51","74","1","5","0","0"
"1646","d","3","1","1","152","61","42","0","5","1","0"
"1207.9000005722046","d","2","1","2","153","70","96","1","5","0","0"
"1298.3999996185303","d","3","1","1","154","4","56","0","5","1","0"
"1313.6000003814697","k","0","0","-1","155","79","52","0","5","0","0"
"1435.8999996185303","d","4","1","0","156","29","48","0","5","1","0"
"null","null","-1","1","-1","157","47","71","0","5","1","0"
"930.3000001907349","k","0","0","-1","158","64","81","1","5","0","0"
"1282.8000001907349","k","0","0","-1","159","84","76","0","5","0","0"
"1545.8999996185303","d","3","1","1","160","31","24","1","5","1","0"
"1500.3000001907349","k","3","0","1","161","87","53","1","5","1","0"
"1382.8000001907349","j","0","0","-1","162","85","44","1","5","1","0"
"1526.1999998092651","k","0","0","-1","163","90","75","1","6","0","0"
"1435.8000001907349","d","3","1","1","164","89","55","0","6","0","0"
"1490.5999994277954","d","3","1","1","165","10","43","1","6","1","0"
"1824.2999992370605","d","2","1","2","166","97","61","0","6","0","0"
"1367.0999994277954","k","3","0","1","167","81","57","0","6","1","0"
"1599.2000007629395","d","4","1","0","168","49","5","1","6","1","0"
"1471.0999994277954","d","2","1","2","169","34","24","0","6","0","0"
"1570.3999996185303","d","2","1","2","170","31","58","1","6","0","0"
"1458.1000003814697","d","2","1","2","171","81","92","0","6","1","0"
"null","null","-1","0","-1","172","74","66","1","6","1","0"
"1415.1999998092651","k","0","0","-1","173","36","54","1","6","0","0"
"1427.3000001907349","d","2","1","2","174","76","35","0","6","0","0"
"1582.6999998092651","j","0","0","-1","175","27","48","1","6","1","0"
"1572.0999994277954","d","3","1","1","176","52","41","0","6","0","0"
"null","null","-1","0","-1","177","34","0","1","6","1","0"
"1531.7000007629395","k","3","0","1","178","76","2","0","6","1","0"
"1453","j","3","0","1","179","86","96","1","6","0","0"
"1388.9000005722046","k","0","0","-1","180","60","11","0","6","0","0"
"1534.5999994277954","k","3","0","1","181","88","9","1","6","1","0"
"1544.5999994277954","d","3","1","1","182","58","45","0","6","1","0"
"1333.7000007629395","d","3","1","1","183","81","34","0","7","0","0"
"1449.8000001907349","k","0","0","-1","184","4","38","1","7","0","0"
"1226.5999994277954","d","2","1","2","185","45","10","0","7","1","0"
"1988.9000005722046","f","2","1","2","186","56","31","1","7","1","0"
"1388.1999998092651","k","3","0","1","187","70","95","0","7","1","0"
"1475","j","3","0","1","188","8","59","1","7","0","0"
"863.2000007629395","j","0","0","-1","189","27","98","1","7","1","0"
"1287.9000005722046","d","2","1","2","190","33","52","1","7","1","0"
"1388.7000007629395","k","0","0","-1","191","50","2","0","7","0","0"
"1921.8999996185303","d","3","1","1","192","88","4","0","7","0","0"
"1488.5","k","0","0","-1","193","7","90","0","7","0","0"
"1327.2999992370605","d","2","1","2","194","97","16","0","7","1","0"
"867.4000005722046","j","0","0","-1","195","56","44","1","7","1","0"
"1098.6000003814697","d","2","1","2","196","93","39","1","7","1","0"
"1964.7000007629395","d","3","1","1","197","58","75","0","7","1","0"
"940.1999998092651","j","3","0","1","198","97","12","1","7","0","0"
"1011.8000001907349","d","3","1","1","199","66","56","0","7","0","0"
"845.1999998092651","j","0","0","-1","200","10","59","1","7","1","0"
"1016","k","0","0","-1","201","67","10","0","7","0","0"
"971.9000005722046","d","3","1","1","202","39","72","1","7","0","0"
"1450.5999994277954","d","2","1","2","203","46","2","0","8","0","0"
"1438.2999992370605","k","0","0","-1","204","67","84","0","8","0","0"
"791.6000003814697","d","2","1","2","205","81","2","0","8","1","0"
"1333.2999992370605","k","0","0","-1","206","14","71","1","8","0","0"
"null","null","-1","0","-1","207","51","20","1","8","1","0"
"851","d","3","1","1","208","13","95","1","8","0","0"
"1129.3000001907349","k","3","0","1","209","77","94","1","8","1","0"
"1056.1999998092651","j","3","0","1","210","67","64","1","8","0","0"
"966.1000003814697","d","2","1","2","211","53","15","1","8","1","0"
"1400.6000003814697","d","4","1","0","212","67","82","1","8","1","0"
"1116.0999994277954","k","0","0","-1","213","50","58","0","8","0","0"
"1080","d","3","1","1","214","1","51","0","8","0","0"
"1043.0999994277954","d","2","1","2","215","61","50","0","8","1","0"
"675.1999998092651","k","3","0","1","216","40","2","1","8","1","0"
"1049.3999996185303","j","3","0","1","217","86","68","0","8","0","0"
"776.3000001907349","d","3","1","1","218","89","52","0","8","1","0"
"979","d","2","1","2","219","18","31","0","8","1","0"
"1087.8000001907349","d","2","1","2","220","84","58","1","8","0","0"
"1080.0999994277954","j","3","0","1","221","16","2","1","8","0","0"
"1043.0999994277954","k","3","0","1","222","93","60","0","8","1","0"
"null","null","-1","0","-1","223","34","93","0","9","1","0"
"888","d","2","1","2","224","36","85","0","9","1","0"
"1243","k","3","0","1","225","85","93","1","9","1","0"
"1115.5","d","2","1","2","226","26","98","0","9","0","0"
"1363.5","k","3","0","1","227","66","34","0","9","1","0"
"1000.1000003814697","d","4","1","0","228","10","31","1","9","0","0"
"1802.4000005722046","d","2","1","2","229","35","84","0","9","0","0"
"1195.3999996185303","k","0","0","-1","230","23","73","1","9","0","0"
"1270.8000001907349","d","4","1","0","231","46","47","0","9","0","0"
"1538","d","2","1","2","232","47","21","0","9","0","0"
"null","null","-1","0","-1","233","65","10","1","9","0","0"
"null","null","-1","0","-1","234","62","45","0","9","1","0"
"1160.5","d","3","1","1","235","74","77","1","9","1","0"
"1654","k","0","0","-1","236","41","55","1","9","0","0"
"1316.1000003814697","d","4","1","0","237","39","90","1","9","0","0"
"950.9000005722046","d","2","1","2","238","67","49","1","9","1","0"
"1110.9000005722046","k","3","0","1","239","78","1","1","9","1","0"
"1086.1999998092651","k","3","0","1","240","69","70","0","9","1","0"
"643","d","2","1","2","241","80","96","0","9","1","0"
"1017.5999994277954","k","0","0","-1","242","85","78","1","9","0","0"
