"rt","key_press","reward","type","marble","trial_num","stim_1","stim_2","new_stim","change_index","block","changed","marble_set"
"1219","f","4","1","0","1","23","29","50","0","0","0","5"
"1018","d","2","1","1","2","54","83","80","0","0","0","5"
"981","f","2","1","1","3","27","52","79","0","0","0","5"
"1889","f","2","1","1","4","86","48","94","0","0","0","5"
"101","f","3","1","2","5","89","98","98","0","0","0","5"
"151","f","4","1","0","6","70","41","12","0","0","0","5"
"102","f","4","1","0","7","69","19","93","0","0","0","5"
"81","f","2","1","1","8","1","76","74","0","0","0","5"
"32","f","2","1","1","9","91","98","16","0","0","0","5"
"25","d","2","1","1","10","81","59","40","0","0","0","5"
"23","f","3","1","2","11","76","85","96","0","0","0","5"
"226","f","2","1","1","12","68","40","58","0","0","0","5"
"95","f","3","1","2","13","91","13","53","0","0","0","5"
"635","f","3","1","2","14","44","22","62","0","0","0","5"
"19","f","2","1","1","15","13","51","26","0","0","0","5"
"48","f","3","1","2","16","97","26","50","0","0","0","5"
"263","f","4","1","0","17","29","50","30","0","0","0","5"
"13","d","2","1","1","18","18","81","27","0","0","0","5"
"321","d","4","1","0","19","15","3","32","0","0","0","5"
"951","d","3","1","2","20","29","89","6","0","0","0","5"
"8485","j","3","0","2","21","14","1","58","0","0","0","5"
"2477","k","3","0","2","22","97","95","12","1","0","1","5"
"2502","k","3","0","2","23","21","16","70","1","0","1","5"
"2030","k","3","0","2","24","33","85","69","1","0","1","5"
"1383","j","3","0","2","25","51","13","48","0","0","0","5"
"1195","k","3","0","2","26","26","66","36","0","0","1","5"
"876","k","0","0","-1","27","74","70","78","1","0","0","5"
"1551","j","3","0","2","28","58","76","73","0","0","0","5"
"1181","j","3","0","2","29","7","2","47","1","0","0","5"
"1147","k","3","0","2","30","35","47","16","0","0","1","5"
"772","j","3","0","2","31","4","27","8","1","0","0","5"
"760","j","3","0","2","32","2","17","74","0","0","0","5"
"442","j","0","0","-1","33","97","31","92","1","0","1","5"
"460","j","3","0","2","34","54","5","95","0","0","0","5"
"177","k","0","0","-1","35","60","23","35","1","0","0","5"
"522","j","0","0","-1","36","54","26","22","0","0","1","5"
"1808","k","0","0","-1","37","79","74","91","1","0","0","5"
"180","k","3","0","2","38","83","13","48","0","0","1","5"
"1687","j","3","0","2","39","75","17","44","1","0","0","5"
"1142","j","0","0","-1","40","98","12","69","0","0","1","5"
"10044","","","","","","","","","","","",""
"7105","","","","","","","","","","","",""
"null","null","-1","1","-1","43","98","62","54","0","0","0","5"
"null","null","-1","0","-1","44","83","54","22","1","0","1","5"
"628","f","3","1","2","45","70","19","64","0","0","1","5"
"779","f","3","1","2","46","39","6","93","1","0","1","5"
"null","null","-1","0","-1","47","87","78","43","0","0","1","5"
"4","f","3","1","2","48","55","41","93","1","0","1","5"
"null","null","-1","0","-1","49","81","57","36","0","0","0","5"
"null","null","-1","0","-1","50","70","42","41","0","0","0","5"
"null","null","-1","0","-1","51","22","94","85","0","0","0","5"
"null","null","-1","0","-1","52","80","63","98","0","0","0","5"
"null","null","-1","0","-1","53","52","88","41","1","0","0","5"
"82","d","2","1","1","54","18","76","83","1","0","0","5"
"210","d","4","1","0","55","39","93","67","1","0","0","5"
"145","f","4","1","0","56","18","96","78","1","0","1","5"
"198","d","2","1","1","57","6","39","47","1","0","0","5"
"1","d","2","1","1","58","50","27","80","0","0","1","5"
"null","null","-1","0","-1","59","78","36","26","0","0","1","5"
"326","f","3","1","2","60","66","54","57","0","0","1","5"
"null","null","-1","0","-1","61","16","23","56","1","0","1","5"
"1420","j","3","0","2","62","38","93","53","1","0","0","5"
"null","null","-1","1","-1","63","22","96","60","0","1","0","5"
"714","d","4","1","0","64","29","19","38","0","1","1","5"
"null","null","-1","0","-1","65","76","73","58","1","1","1","5"
"null","null","-1","0","-1","66","62","33","59","1","1","0","5"
"1360","f","2","1","1","67","73","65","17","0","1","1","5"
"901","k","3","0","2","68","2","10","50","0","1","1","5"
"860","d","2","1","1","69","65","12","11","1","1","0","5"
"1060","j","3","0","2","70","79","16","85","1","1","0","5"
"987","d","2","1","1","71","76","48","30","1","1","1","5"
"null","null","-1","1","-1","72","88","18","38","1","1","0","5"
"null","null","-1","1","-1","73","87","47","13","1","1","0","5"
"1257","k","3","0","2","74","95","5","24","0","1","1","5"
"1176","k","0","0","-1","75","36","31","5","0","1","0","5"
"46","d","2","1","1","76","27","56","45","1","1","0","5"
"1059","d","2","1","1","77","16","78","17","1","1","1","5"
"1250","d","3","1","2","78","94","1","11","0","1","0","5"
"880","j","3","0","2","79","28","18","43","0","1","0","5"
"1198","k","3","0","2","80","17","1","52","0","1","1","5"
"96","j","0","0","-1","81","80","78","72","0","1","1","5"
"67","k","3","0","2","82","69","3","49","1","1","1","5"
"1037","d","2","1","1","83","2","97","63","1","2","1","5"
"45","k","3","0","2","84","44","96","62","1","2","1","5"
"204","k","0","0","-1","85","69","12","88","1","2","0","5"
"89","k","3","0","2","86","71","96","90","1","2","1","5"
"40","d","2","1","1","87","46","9","17","0","2","0","5"
"185","k","3","0","2","88","45","90","44","1","2","1","5"
"67","d","2","1","1","89","10","70","48","0","2","1","5"
"328","d","2","1","1","90","46","73","0","0","2","0","5"
"34","j","0","0","-1","91","92","26","67","1","2","1","5"
"321","d","3","1","2","92","29","28","32","0","2","0","5"
"48","d","2","1","1","93","57","16","83","0","2","0","5"
"58","d","2","1","1","94","24","39","38","1","2","1","5"
"194","d","2","1","1","95","78","16","35","0","2","1","5"
"393","d","2","1","1","96","51","9","83","0","2","0","5"
"0","j","3","0","2","97","90","45","26","0","2","0","5"
"313","k","0","0","-1","98","81","96","29","0","2","0","5"
"310","d","2","1","1","99","68","34","19","1","2","0","5"
"129","j","3","0","2","100","67","41","75","1","2","0","5"
"132","j","0","0","-1","101","72","67","74","1","2","1","5"
"562","k","3","0","2","102","67","95","4","0","2","1","5"
"14","d","2","1","1","103","90","73","58","0","3","0","5"
"60","j","3","0","2","104","47","26","88","1","3","0","5"
"316","d","2","1","1","105","49","44","58","1","3","0","5"
"45","j","3","0","2","106","70","60","1","0","3","0","5"
"24","d","2","1","1","107","62","65","57","1","3","1","5"
"319","d","4","1","0","108","94","51","9","1","3","0","5"
"71","k","3","0","2","109","29","19","50","0","3","1","5"
"239","j","0","0","-1","110","7","91","79","1","3","1","5"
"472","d","3","1","2","111","49","15","18","0","3","1","5"
"274","j","3","0","2","112","83","87","72","0","3","0","5"
"1072","d","2","1","1","113","86","80","60","0","3","0","5"
"203","d","3","1","2","114","49","57","59","1","3","1","5"
"34","d","2","1","1","115","50","49","58","0","3","1","5"
"263","d","2","1","1","116","30","31","98","0","3","0","5"
"947","d","4","1","0","117","22","64","53","0","3","1","5"
"167","k","3","0","2","118","47","51","93","1","3","1","5"
"429","j","3","0","2","119","91","26","23","0","3","0","5"
"160","j","0","0","-1","120","4","36","38","1","3","1","5"
"48","j","3","0","2","121","38","29","26","1","3","0","5"
"233","j","0","0","-1","122","52","62","73","1","3","1","5"
"119","j","0","0","-1","123","15","33","83","0","4","1","5"
"447","d","2","1","1","124","6","77","54","0","4","0","5"
"189","j","3","0","2","125","85","92","37","0","4","0","5"
"145","j","0","0","-1","126","75","56","79","1","4","1","5"
"190","j","0","0","-1","127","69","33","10","0","4","1","5"
"221","j","0","0","-1","128","2","55","7","1","4","1","5"
"3","d","3","1","2","129","32","14","94","0","4","0","5"
"117","d","2","1","1","130","11","50","71","1","4","0","5"
"3","d","2","1","1","131","49","17","52","0","4","1","5"
"0","j","3","0","2","132","83","78","11","1","4","0","5"
"203","d","4","1","0","133","41","23","66","1","4","0","5"
"262","d","2","1","1","134","86","89","21","1","4","0","5"
"153","d","2","1","1","135","95","49","37","0","4","0","5"
"135","j","3","0","2","136","79","38","64","0","4","0","5"
"347","d","2","1","1","137","14","36","17","0","4","0","5"
"436","d","3","1","2","138","56","69","3","1","4","1","5"
"145","d","2","1","1","139","70","35","69","1","4","1","5"
"87","j","0","0","-1","140","66","29","4","0","4","1","5"
"23","j","0","0","-1","141","25","80","79","1","4","1","5"
"230","j","0","0","-1","142","24","31","48","1","4","1","5"
"92","k","0","0","-1","143","66","70","38","1","5","0","5"
"151","d","2","1","1","144","96","7","29","1","5","0","5"
"142","k","0","0","-1","145","72","46","91","1","5","0","5"
"107","k","3","0","2","146","51","21","30","0","5","1","5"
"379","d","2","1","1","147","58","31","57","0","5","1","5"
"366","d","2","1","1","148","43","5","44","0","5","1","5"
"383","d","3","1","2","149","14","30","68","1","5","1","5"
"658","d","3","1","2","150","2","16","62","0","5","0","5"
"92","k","0","0","-1","151","12","62","16","0","5","0","5"
"210","d","2","1","1","152","80","51","3","1","5","0","5"
"5","j","0","0","-1","153","2","67","40","1","5","1","5"
"26","j","0","0","-1","154","25","41","18","1","5","1","5"
"202","j","3","0","2","155","37","54","77","0","5","0","5"
"378","d","2","1","1","156","13","4","38","1","5","1","5"
"197","j","0","0","-1","157","45","2","82","0","5","1","5"
"37","k","0","0","-1","158","36","31","33","1","5","0","5"
"357","d","3","1","2","159","9","84","41","0","5","0","5"
"10","d","4","1","0","160","29","44","75","0","5","1","5"
"268","d","3","1","2","161","29","57","63","0","5","0","5"
"59","j","0","0","-1","162","57","84","2","1","5","1","5"
"1179","d","2","1","1","163","94","82","0","1","6","0","5"
"212","k","0","0","-1","164","4","54","57","0","6","0","5"
"76","k","0","0","-1","165","21","39","80","0","6","0","5"
"493","d","3","1","2","166","67","0","71","0","6","1","5"
"188","d","2","1","1","167","68","60","45","1","6","1","5"
"141","d","3","1","2","168","92","61","17","0","6","0","5"
"28","j","0","0","-1","169","3","22","58","0","6","1","5"
"266","d","2","1","1","170","11","32","94","0","6","0","5"
"113","k","3","0","2","171","34","84","58","0","6","1","5"
"139","j","3","0","2","172","34","68","76","0","6","0","5"
"309","d","2","1","1","173","56","77","76","1","6","1","5"
"176","d","2","1","1","174","12","89","6","1","6","1","5"
"82","j","3","0","2","175","30","93","7","1","6","0","5"
"null","null","-1","1","-1","176","33","73","41","1","6","0","5"
"166","k","0","0","-1","177","40","37","1","1","6","0","5"
"580","d","3","1","2","178","74","54","53","1","6","1","5"
"64","j","3","0","2","179","86","5","38","0","6","0","5"
"207","d","4","1","0","180","77","48","44","1","6","1","5"
"37","j","0","0","-1","181","74","19","88","0","6","1","5"
"192","k","3","0","2","182","2","13","88","1","6","1","5"
"171","k","3","0","2","183","41","55","73","0","7","1","5"
"233","k","3","0","2","184","58","32","95","1","7","1","5"
"569","d","3","1","2","185","80","90","13","1","7","1","5"
"196","d","2","1","1","186","24","53","29","1","7","1","5"
"30","k","3","0","2","187","20","31","42","1","7","1","5"
"55","f","4","1","0","188","6","57","71","0","7","0","5"
"82","k","0","0","-1","189","98","34","64","0","7","0","5"
"48","k","3","0","2","190","88","11","74","0","7","1","5"
"56","d","2","1","1","191","31","94","55","1","7","0","5"
"32","f","2","1","1","192","86","56","70","0","7","0","5"
"76","f","2","1","1","193","31","55","43","1","7","0","5"
"238","k","0","0","-1","194","46","14","29","1","7","0","5"
"28","f","3","1","2","195","91","58","61","0","7","1","5"
"95","k","0","0","-1","196","23","96","66","0","7","0","5"
"30","k","3","0","2","197","93","20","86","1","7","1","5"
"25","f","2","1","1","198","64","5","1","0","7","1","5"
"134","f","2","1","1","199","59","60","16","0","7","0","5"
"156","j","0","0","-1","200","1","90","40","0","7","1","5"
"356","f","2","1","1","201","98","86","68","1","7","0","5"
"71","k","0","0","-1","202","34","15","59","1","7","0","5"
"null","null","-1","1","-1","203","38","26","91","1","8","0","5"
"null","null","-1","1","-1","204","30","77","21","0","8","1","5"
"142","f","2","1","1","205","40","68","80","0","8","0","5"
"74","k","3","0","2","206","86","35","2","1","8","1","5"
"215","d","4","1","0","207","50","92","43","1","8","0","5"
"197","d","2","1","1","208","92","56","20","0","8","1","5"
"411","d","3","1","2","209","51","5","26","0","8","0","5"
"168","f","2","1","1","210","43","0","17","1","8","1","5"
"136","j","0","0","-1","211","7","61","20","1","8","1","5"
"244","j","3","0","2","212","95","58","85","0","8","0","5"
"16","j","3","0","2","213","94","68","19","1","8","0","5"
"130","j","3","0","2","214","1","61","60","1","8","0","5"
"135","k","3","0","2","215","94","8","38","0","8","1","5"
"45","k","3","0","2","216","76","4","0","0","8","1","5"
"48","d","4","1","0","217","31","59","44","0","8","0","5"
"133","f","2","1","1","218","85","35","43","1","8","1","5"
"171","k","0","0","-1","219","11","89","30","1","8","0","5"
"181","k","3","0","2","220","66","81","56","0","8","1","5"
"106","k","3","0","2","221","95","62","46","1","8","1","5"
"107","d","3","1","2","222","16","85","83","0","8","0","5"
"303","d","2","1","1","223","15","14","57","1","9","1","5"
"10","d","2","1","1","224","90","81","11","1","9","1","5"
"84","k","0","0","-1","225","53","55","63","0","9","0","5"
"null","null","-1","0","-1","226","73","52","77","1","9","0","5"
"126","d","4","1","0","227","49","6","78","1","9","0","5"
"35","j","0","0","-1","228","27","79","33","0","9","1","5"
"103","d","3","1","2","229","34","75","79","1","9","1","5"
"null","null","-1","0","-1","230","25","34","74","0","9","0","5"
"83","k","3","0","2","231","5","65","73","1","9","1","5"
"279","j","0","0","-1","232","22","4","44","1","9","1","5"
"267","k","3","0","2","233","65","49","45","1","9","1","5"
"499","k","0","0","-1","234","18","42","55","0","9","0","5"
"120","d","3","1","2","235","53","17","64","1","9","1","5"
"78","k","0","0","-1","236","59","50","32","0","9","0","5"
"204","d","3","1","2","237","32","71","38","0","9","1","5"
"null","null","-1","1","-1","238","73","24","32","0","9","1","5"
"null","null","-1","1","-1","239","41","19","13","0","9","0","5"
"null","null","-1","0","-1","240","68","84","3","0","9","0","5"
"null","null","-1","1","-1","241","10","27","56","0","9","0","5"
"null","null","-1","1","-1","242","99","40","83","1","9","0","5"
