"rt","key_press","reward","type","marble","trial_num","stim_1","stim_2","change_index","block","changed","marble_set"
"9308.5","d","2","1","0","1","90","21","0","0","0","4"
"692.5","f","4","1","1","2","44","34","0","0","0","4"
"1053.3999996185303","d","2","1","0","3","21","66","0","0","0","4"
"93.29999923706055","f","4","1","1","4","74","75","0","0","0","4"
"221.60000038146973","f","4","1","1","5","27","64","0","0","0","4"
"917.1999988555908","f","2","1","0","6","67","94","0","0","0","4"
"757.2000007629395","f","2","1","0","7","95","48","0","0","0","4"
"852.5","d","4","1","1","8","7","10","0","0","0","4"
"884.8999996185303","d","3","1","2","9","60","80","0","0","0","4"
"804.5","f","2","1","0","10","89","76","0","0","0","4"
"1012.8000011444092","f","2","1","0","11","36","26","0","0","0","4"
"669.6000003814697","d","3","1","2","12","20","54","0","0","0","4"
"2013.3999996185303","d","2","1","0","13","71","92","0","0","0","4"
"797.7999992370605","d","2","1","0","14","26","35","0","0","0","4"
"1310.3999996185303","f","4","1","1","15","79","50","0","0","0","4"
"892.7999992370605","f","2","1","0","16","62","77","0","0","0","4"
"1028.8999996185303","f","2","1","0","17","52","21","0","0","0","4"
"764.8999996185303","d","2","1","0","18","64","74","0","0","0","4"
"732.2000007629395","f","2","1","0","19","34","30","0","0","0","4"
"916.8999996185303","f","2","1","0","20","45","29","0","0","0","4"
"7244.700000762939","k","3","0","2","21","93","13","1","0","1","4"
"662.7000007629395","k","3","0","2","22","97","25","0","0","1","4"
"204.60000038146973","j","3","0","2","23","26","54","1","0","0","4"
"1117.5","k","3","0","2","24","35","46","0","0","1","4"
"676.6999988555908","k","3","0","2","25","49","75","0","0","1","4"
"709.1000003814697","k","0","0","-1","26","5","50","1","0","0","4"
"620.3999996185303","k","3","0","2","27","88","6","1","0","1","4"
"605.5","j","3","0","2","28","40","66","1","0","0","4"
"622","j","3","0","2","29","69","52","1","0","0","4"
"589.8999996185303","j","3","0","2","30","64","56","0","0","0","4"
"660.1000003814697","j","3","0","2","31","65","96","0","0","0","4"
"61","j","0","0","-1","32","72","97","0","0","1","4"
"709.5","k","0","0","-1","33","47","19","0","0","0","4"
"2021.1000003814697","j","3","0","2","34","69","77","0","0","0","4"
"172.69999885559082","j","0","0","-1","35","28","91","0","0","1","4"
"1052.6999988555908","k","0","0","-1","36","9","11","1","0","0","4"
"2484.5","j","0","0","-1","37","90","19","1","0","1","4"
"861.3999996185303","j","0","0","-1","38","25","3","0","0","1","4"
"1134.3000011444092","j","0","0","-1","39","73","60","1","0","1","4"
"925.1000003814697","k","3","0","2","40","97","28","1","0","1","4"
"9109.5","","","","","","","","","","",""
"8621.900001525879","","","","","","","","","","",""
"4327.200000762939","","","","","","","","","","",""
"null","null","-1","1","-1","44","65","8","0","0","1","4"
"null","null","-1","1","-1","45","73","0","1","0","1","4"
"223.89999961853027","k","0","0","-1","46","2","60","0","0","0","4"
"null","null","-1","0","-1","47","99","17","1","0","1","4"
"null","null","-1","1","-1","48","27","52","1","0","1","4"
"null","null","-1","0","-1","49","49","40","0","0","0","4"
"null","null","-1","1","-1","50","37","52","1","0","0","4"
"1748.7999992370605","k","3","0","2","51","82","13","1","0","1","4"
"1256.7000007629395","k","0","0","-1","52","2","80","1","0","0","4"
"1273.099998474121","j","3","0","2","53","24","77","0","0","0","4"
"null","null","-1","1","-1","54","51","65","1","0","1","4"
"null","null","-1","1","-1","55","66","90","1","0","0","4"
"null","null","-1","0","-1","56","10","85","0","0","1","4"
"1932.2999992370605","k","0","0","-1","57","55","53","0","0","0","4"
"1816.7999992370605","d","3","1","2","58","89","56","0","0","0","4"
"1343.6999988555908","d","2","1","0","59","65","81","0","0","0","4"
"1447.7000007629395","d","2","1","0","60","80","68","1","0","0","4"
"1152.6000003814697","d","2","1","0","61","64","3","1","0","1","4"
"1223.5","j","0","0","-1","62","29","49","0","0","1","4"
"null","null","-1","0","-1","63","95","88","0","0","1","4"
"1388.1000003814697","j","3","0","2","64","80","82","0","1","0","4"
"1168.2000007629395","d","2","1","0","65","91","70","0","1","1","4"
"1262.7000007629395","d","2","1","0","66","11","65","0","1","0","4"
"1781.8000011444092","d","4","1","1","67","73","3","0","1","0","4"
"null","null","-1","0","-1","68","31","23","1","1","1","4"
"1350.3000011444092","d","2","1","0","69","76","56","1","1","0","4"
"1056.8999996185303","d","2","1","0","70","30","38","0","1","1","4"
"null","null","-1","0","-1","71","70","61","1","1","1","4"
"null","null","-1","0","-1","72","77","11","1","1","0","4"
"1186.099998474121","j","0","0","-1","73","49","39","0","1","1","4"
"1169.3000011444092","j","3","0","2","74","86","96","0","1","0","4"
"1316","j","3","0","2","75","46","88","1","1","0","4"
"936.2000007629395","j","0","0","-1","76","28","14","1","1","1","4"
"1216.1000003814697","d","2","1","0","77","93","91","0","1","0","4"
"null","null","-1","1","-1","78","9","8","1","1","1","4"
"1015.1000003814697","j","0","0","-1","79","28","47","1","1","1","4"
"1120.3000011444092","d","2","1","0","80","10","20","0","1","1","4"
"1111.1999988555908","d","4","1","1","81","64","35","0","1","1","4"
"1183.8000011444092","d","3","1","2","82","99","21","1","1","0","4"
"1080.5","j","3","0","2","83","31","80","1","1","0","4"
"1082.7000007629395","k","3","0","2","84","75","18","1","2","1","4"
"1168.400001525879","d","2","1","0","85","26","19","1","2","1","4"
"1094.3000011444092","d","2","1","0","86","72","53","0","2","0","4"
"975.8000011444092","d","2","1","0","87","81","5","0","2","1","4"
"1271.6000003814697","k","3","0","2","88","2","36","1","2","1","4"
"1129.400001525879","j","0","0","-1","89","15","42","1","2","1","4"
"1101.8000011444092","d","4","1","1","90","35","6","0","2","0","4"
"1209.7000007629395","d","2","1","0","91","68","54","0","2","1","4"
"1223.2000007629395","d","3","1","2","92","77","42","0","2","1","4"
"1904.1000003814697","k","0","0","-1","93","23","28","0","2","0","4"
"1006.3000011444092","j","0","0","-1","94","10","52","1","2","1","4"
"1080.599998474121","j","3","0","2","95","6","58","0","2","0","4"
"1407.6000003814697","d","2","1","0","96","55","27","1","2","0","4"
"937.5","d","2","1","0","97","49","32","1","2","1","4"
"1398.7000007629395","d","4","1","1","98","53","35","1","2","0","4"
"1369.5","j","3","0","2","99","44","55","0","2","0","4"
"1126","j","3","0","2","100","55","4","0","2","0","4"
"1000.6000003814697","j","0","0","-1","101","60","77","1","2","1","4"
"960.8000011444092","d","2","1","0","102","15","65","0","2","0","4"
"983.3999996185303","k","0","0","-1","103","23","73","1","2","0","4"
"915.1000003814697","j","0","0","-1","104","26","80","1","3","1","4"
"1118.3000011444092","j","0","0","-1","105","79","81","1","3","1","4"
"1239.2000007629395","j","3","0","2","106","87","61","1","3","0","4"
"895.4000015258789","k","0","0","-1","107","65","15","1","3","0","4"
"1055.7999992370605","d","4","1","1","108","4","48","0","3","0","4"
"1234.099998474121","d","2","1","0","109","92","4","1","3","0","4"
"1103.2000007629395","d","2","1","0","110","36","91","1","3","0","4"
"1352","d","3","1","2","111","98","88","0","3","1","4"
"1121.1000003814697","d","2","1","0","112","70","12","0","3","0","4"
"894.2999992370605","d","2","1","0","113","11","66","1","3","1","4"
"1109.5","j","0","0","-1","114","75","20","1","3","1","4"
"1200.7000007629395","j","3","0","2","115","24","30","0","3","0","4"
"856.7000007629395","j","0","0","-1","116","48","29","0","3","1","4"
"1037.7999992370605","j","0","0","-1","117","31","16","0","3","1","4"
"1087.7000007629395","d","3","1","2","118","73","96","1","3","0","4"
"1575.2999992370605","j","0","0","-1","119","99","94","0","3","1","4"
"1264","d","2","1","0","120","73","79","0","3","1","4"
"1703.7999992370605","d","2","1","0","121","11","90","0","3","0","4"
"1412.7000007629395","d","2","1","0","122","53","22","1","3","0","4"
"1695","j","0","0","-1","123","56","40","0","3","1","4"
"905.5","j","3","0","2","124","45","94","0","4","0","4"
"1105.3999996185303","d","2","1","0","125","15","43","0","4","0","4"
"989.8000011444092","j","0","0","-1","126","25","33","1","4","1","4"
"901.3999996185303","j","3","0","2","127","86","29","0","4","0","4"
"904.1000003814697","j","0","0","-1","128","56","8","1","4","1","4"
"1184.8000011444092","j","0","0","-1","129","86","27","0","4","1","4"
"1217.3000011444092","j","0","0","-1","130","85","32","1","4","1","4"
"1318.7999992370605","d","3","1","2","131","58","24","0","4","0","4"
"1086.5","f","2","1","0","132","59","0","0","4","0","4"
"912.6999988555908","f","3","1","2","133","69","86","0","4","1","4"
"1034.1000003814697","d","2","1","0","134","19","97","1","4","1","4"
"null","null","-1","1","-1","135","9","86","0","4","0","4"
"996.3999996185303","d","3","1","2","136","75","71","1","4","1","4"
"946","j","3","0","2","137","5","39","1","4","0","4"
"895.7000007629395","j","0","0","-1","138","58","57","1","4","1","4"
"977.1999988555908","d","3","1","2","139","92","90","1","4","0","4"
"1015.2000007629395","d","3","1","2","140","36","50","1","4","0","4"
"1038","d","2","1","0","141","56","14","1","4","1","4"
"1504.2999992370605","j","3","0","2","142","52","10","0","4","0","4"
"950.7999992370605","k","3","0","2","143","30","57","0","4","1","4"
"936.3000011444092","k","0","0","-1","144","48","32","0","5","0","4"
"903.1000003814697","k","3","0","2","145","13","34","1","5","1","4"
"1169.5","d","2","1","0","146","76","6","0","5","1","4"
"1047.1999988555908","d","3","1","2","147","80","31","1","5","1","4"
"1064.2999992370605","j","3","0","2","148","4","24","0","5","0","4"
"872.3999996185303","k","0","0","-1","149","11","49","1","5","0","4"
"897.2999992370605","j","0","0","-1","150","54","31","0","5","1","4"
"1528.2000007629395","d","2","1","0","151","8","45","1","5","0","4"
"991.4000015258789","d","2","1","0","152","8","71","1","5","0","4"
"950.8999996185303","j","0","0","-1","153","73","13","0","5","1","4"
"1077.7000007629395","k","3","0","2","154","44","21","0","5","1","4"
"1055.2999992370605","j","3","0","2","155","20","2","0","5","0","4"
"1030.6000003814697","d","3","1","2","156","14","9","1","5","0","4"
"1518.6000003814697","k","3","0","2","157","70","38","1","5","1","4"
"1231.6000003814697","k","0","0","-1","158","75","43","0","5","0","4"
"1031","d","2","1","0","159","11","47","1","5","1","4"
"1632.8000011444092","d","2","1","0","160","11","35","0","5","1","4"
"1231.6000003814697","d","3","1","2","161","27","11","0","5","0","4"
"824","d","2","1","0","162","86","70","1","5","1","4"
"1102.5","d","4","1","1","163","92","86","1","5","0","4"
"1032.6000003814697","d","4","1","1","164","39","72","1","6","1","4"
"976.1000003814697","k","3","0","2","165","46","20","1","6","1","4"
"1271.2000007629395","k","3","0","2","166","23","98","0","6","1","4"
"897.0999984741211","d","2","1","0","167","81","79","0","6","0","4"
"null","null","-1","1","-1","168","6","74","0","6","0","4"
"1013.7999992370605","d","2","1","0","169","14","48","0","6","0","4"
"1006.9000015258789","j","3","0","2","170","22","18","0","6","0","4"
"950.7999992370605","j","0","0","-1","171","51","82","1","6","1","4"
"1240.2999992370605","d","3","1","2","172","78","3","0","6","1","4"
"1695.1000003814697","d","3","1","2","173","93","92","1","6","0","4"
"null","null","-1","1","-1","174","93","11","1","6","0","4"
"1566.400001525879","d","3","1","2","175","60","49","1","6","1","4"
"981.1000003814697","d","3","1","2","176","98","27","0","6","1","4"
"1217.3999996185303","j","0","0","-1","177","36","32","0","6","1","4"
"1469.900001525879","j","0","0","-1","178","11","71","1","6","1","4"
"873.3999996185303","j","3","0","2","179","37","5","1","6","0","4"
"1088.2000007629395","d","2","1","0","180","52","59","1","6","0","4"
"1119.1000003814697","k","0","0","-1","181","92","76","0","6","0","4"
"1088.5","j","3","0","2","182","7","55","0","6","0","4"
"1100.3999996185303","j","0","0","-1","183","50","64","1","6","1","4"
"962.1999988555908","j","0","0","-1","184","49","21","1","7","1","4"
"881","j","3","0","2","185","39","63","1","7","0","4"
"1002.3999996185303","d","4","1","1","186","82","24","1","7","0","4"
"927.3000011444092","j","3","0","2","187","58","55","0","7","0","4"
"1063.2999992370605","d","3","1","2","188","93","60","1","7","0","4"
"977.1000003814697","d","3","1","2","189","57","58","0","7","1","4"
"990.2999992370605","f","4","1","1","190","20","50","0","7","1","4"
"1160","j","0","0","-1","191","30","26","0","7","1","4"
"832.1999988555908","d","2","1","0","192","89","15","1","7","1","4"
"1048","d","3","1","2","193","27","14","0","7","1","4"
"1759.6000003814697","d","3","1","2","194","58","60","0","7","1","4"
"1070.1000003814697","j","0","0","-1","195","61","4","0","7","1","4"
"865.3000011444092","j","0","0","-1","196","41","7","0","7","1","4"
"1023.7000007629395","k","0","0","-1","197","47","62","1","7","0","4"
"877.6999988555908","j","3","0","2","198","16","29","1","7","0","4"
"1168","j","3","0","2","199","29","32","1","7","0","4"
"1478.5","d","2","1","0","200","74","40","1","7","0","4"
"790.7999992370605","k","0","0","-1","201","77","61","1","7","0","4"
"936.2999992370605","f","4","1","1","202","36","13","0","7","0","4"
"1039.8999996185303","d","2","1","0","203","14","94","0","7","1","4"
"985.7000007629395","j","3","0","2","204","88","40","1","8","0","4"
"1486","d","4","1","1","205","13","28","1","8","1","4"
"944.7999992370605","d","3","1","2","206","12","33","1","8","1","4"
"894.5","d","4","1","1","207","65","43","1","8","0","4"
"881.3000011444092","d","3","1","2","208","15","92","1","8","1","4"
"782.7999992370605","d","3","1","2","209","39","78","1","8","1","4"
"807.5","d","2","1","0","210","45","16","0","8","0","4"
"1078","j","3","0","2","211","76","49","0","8","0","4"
"958.3999996185303","d","2","1","0","212","47","15","0","8","1","4"
"1031.2999992370605","j","0","0","-1","213","76","44","0","8","1","4"
"1031","j","0","0","-1","214","55","25","0","8","1","4"
"1175.7000007629395","j","3","0","2","215","96","73","1","8","0","4"
"850.7999992370605","j","3","0","2","216","21","91","0","8","0","4"
"854.1999988555908","j","0","0","-1","217","24","28","1","8","1","4"
"1006.5","f","2","1","0","218","14","62","1","8","0","4"
"983.2000007629395","d","2","1","0","219","26","14","0","8","1","4"
"1048.1000003814697","j","0","0","-1","220","62","17","0","8","1","4"
"1135.2000007629395","j","3","0","2","221","35","18","0","8","0","4"
"1374.1000003814697","j","3","0","2","222","97","8","1","8","0","4"
"968.5","d","2","1","0","223","39","95","0","8","0","4"
"1218.400001525879","d","2","1","0","224","2","63","0","9","0","4"
"1142.7999992370605","d","2","1","0","225","90","23","1","9","1","4"
"942.2000007629395","d","4","1","1","226","43","69","0","9","1","4"
"790.2000007629395","d","2","1","0","227","57","52","1","9","0","4"
"894.3000011444092","d","2","1","0","228","5","53","1","9","0","4"
"973.2999992370605","j","0","0","-1","229","6","80","1","9","1","4"
"935.2999992370605","d","4","1","1","230","89","38","1","9","0","4"
"902.8999996185303","j","0","0","-1","231","2","11","0","9","1","4"
"960.0999984741211","j","0","0","-1","232","31","84","0","9","1","4"
"1174.2999992370605","k","3","0","2","233","60","33","0","9","1","4"
"1312.1999988555908","j","3","0","2","234","46","60","1","9","0","4"
"869.5","j","3","0","2","235","32","12","0","9","0","4"
"1111.3999996185303","j","0","0","-1","236","61","14","0","9","1","4"
"845.2999992370605","j","3","0","2","237","14","92","1","9","0","4"
"null","null","-1","1","-1","238","51","63","1","9","1","4"
"885.6000003814697","d","3","1","2","239","8","62","1","9","0","4"
"917.7999992370605","d","2","1","0","240","88","92","0","9","0","4"
"975.2000007629395","j","0","0","-1","241","81","40","1","9","1","4"
"1148.5","j","0","0","-1","242","75","27","0","9","1","4"
"822.3999996185303","d","2","1","0","243","90","59","0","9","0","4"
