"rt","key_press","reward","type","marble","trial_num","stim_1","stim_2","change_index","block","changed","marble_set"
"1077","d","2","1","2","1","57","21","0","0","0","3"
"2227","d","2","1","2","2","45","33","0","0","0","3"
"2008","d","4","1","1","3","61","77","0","0","0","3"
"1969","f","2","1","2","4","77","35","0","0","0","3"
"1248","d","2","1","2","5","80","75","0","0","0","3"
"1452","f","3","1","0","6","36","40","0","0","0","3"
"1087","f","2","1","2","7","52","72","0","0","0","3"
"1398","f","3","1","0","8","30","63","0","0","0","3"
"1329","f","2","1","2","9","33","7","0","0","0","3"
"1099","f","3","1","0","10","38","25","0","0","0","3"
"1248","f","2","1","2","11","40","94","0","0","0","3"
"1047","f","3","1","0","12","17","84","0","0","0","3"
"1323","f","4","1","1","13","98","43","0","0","0","3"
"1050","f","2","1","2","14","74","53","0","0","0","3"
"1129","f","2","1","2","15","9","91","0","0","0","3"
"1204","f","2","1","2","16","78","67","0","0","0","3"
"806","f","3","1","0","17","75","33","0","0","0","3"
"1023","d","3","1","0","18","1","39","0","0","0","3"
"939","f","3","1","0","19","51","69","0","0","0","3"
"1398","d","2","1","2","20","93","52","0","0","0","3"
"14918","k","0","0","-1","21","71","29","0","0","0","3"
"1569","k","3","0","0","22","62","59","1","0","1","3"
"3909","k","0","0","-1","23","52","17","0","0","0","3"
"1239","k","0","0","-1","24","81","88","1","0","0","3"
"1823","k","0","0","-1","25","41","80","0","0","0","3"
"4126","k","0","0","-1","26","76","69","0","0","0","3"
"977","k","0","0","-1","27","1","84","1","0","0","3"
"4266","k","0","0","-1","28","70","43","1","0","0","3"
"2488","k","3","0","0","29","3","34","0","0","1","3"
"1018","k","3","0","0","30","27","55","0","0","1","3"
"443","k","0","0","-1","31","96","3","1","0","0","3"
"1664","k","3","0","0","32","10","53","1","0","1","3"
"240","k","0","0","-1","33","30","88","0","0","0","3"
"557","k","3","0","0","34","72","62","0","0","1","3"
"859","k","3","0","0","35","41","68","1","0","1","3"
"127","k","0","0","-1","36","60","47","0","0","0","3"
"503","k","3","0","0","37","58","61","1","0","1","3"
"409","k","3","0","0","38","65","39","0","0","1","3"
"620","k","3","0","0","39","32","56","1","0","1","3"
"417","k","3","0","0","40","55","66","1","0","1","3"
"22718","","","","","","","","","","",""
"7303","","","","","","","","","","",""
"null","null","-1","1","-1","43","67","79","0","0","0","3"
"null","null","-1","0","-1","44","99","59","0","0","0","3"
"128","k","3","0","0","45","13","43","1","0","1","3"
"546","k","3","0","0","46","60","15","0","0","1","3"
"312","k","0","0","-1","47","75","15","1","0","0","3"
"null","null","-1","1","-1","48","76","82","1","0","0","3"
"null","null","-1","1","-1","49","33","9","1","0","1","3"
"1110","d","3","1","0","50","66","42","1","0","0","3"
"757","f","2","1","2","51","55","32","0","0","1","3"
"null","null","-1","0","-1","52","70","50","0","0","0","3"
"1409","f","2","1","2","53","94","11","0","0","0","3"
"1980","d","4","1","1","54","95","92","1","0","1","3"
"978","k","3","0","0","55","61","27","1","0","1","3"
"null","null","-1","0","-1","56","86","5","0","0","1","3"
"993","k","3","0","0","57","61","67","1","0","1","3"
"510","k","3","0","0","58","14","33","0","0","1","3"
"939","f","3","1","0","59","20","9","0","0","1","3"
"810","k","0","0","-1","60","95","18","1","0","0","3"
"672","f","2","1","2","61","95","60","1","0","0","3"
"1119","f","2","1","2","62","24","80","0","0","0","3"
"890","f","2","1","2","63","46","84","0","1","1","3"
"1184","k","3","0","0","64","65","53","1","1","1","3"
"1151","k","0","0","-1","65","93","47","0","1","0","3"
"587","k","3","0","0","66","65","31","0","1","1","3"
"571","k","0","0","-1","67","51","19","1","1","0","3"
"813","k","0","0","-1","68","18","92","0","1","0","3"
"1169","k","3","0","0","69","16","3","1","1","1","3"
"1419","f","2","1","2","70","16","66","1","1","1","3"
"894","f","4","1","1","71","68","13","0","1","1","3"
"1379","k","3","0","0","72","84","98","0","1","1","3"
"631","f","2","1","2","73","58","61","0","1","0","3"
"1303","k","0","0","-1","74","55","5","0","1","0","3"
"985","f","3","1","0","75","49","31","0","1","1","3"
"621","f","4","1","1","76","43","70","1","1","1","3"
"902","f","2","1","2","77","2","15","1","1","1","3"
"636","f","4","1","1","78","34","13","1","1","0","3"
"1133","k","0","0","-1","79","31","43","0","1","0","3"
"668","f","3","1","0","80","5","49","1","1","0","3"
"959","f","3","1","0","81","52","5","1","1","0","3"
"1135","k","0","0","-1","82","52","17","1","1","0","3"
"1988","k","3","0","0","83","74","97","0","2","1","3"
"1039","f","2","1","2","84","24","21","1","2","0","3"
"953","f","3","1","0","85","75","83","1","2","0","3"
"673","k","3","0","0","86","69","30","0","2","1","3"
"775","k","3","0","0","87","22","65","1","2","1","3"
"966","f","2","1","2","88","1","20","1","2","1","3"
"902","f","3","1","0","89","98","29","0","2","0","3"
"914","f","2","1","2","90","36","78","0","2","1","3"
"768","f","3","1","0","91","3","41","1","2","0","3"
"850","f","2","1","2","92","77","85","0","2","0","3"
"710","f","3","1","0","93","60","43","0","2","1","3"
"889","f","2","1","2","94","67","28","0","2","0","3"
"1045","k","0","0","-1","95","64","45","1","2","0","3"
"635","k","0","0","-1","96","17","30","1","2","0","3"
"749","k","3","0","0","97","49","89","0","2","1","3"
"578","k","3","0","0","98","84","53","1","2","1","3"
"710","k","0","0","-1","99","9","64","1","2","0","3"
"877","f","2","1","2","100","67","91","0","2","1","3"
"1223","k","3","0","0","101","2","19","1","2","1","3"
"1567","k","0","0","-1","102","66","92","0","2","0","3"
"714","k","0","0","-1","103","15","84","0","3","0","3"
"999","k","0","0","-1","104","35","80","0","3","0","3"
"775","k","3","0","0","105","29","9","1","3","1","3"
"1312","k","3","0","0","106","21","35","1","3","1","3"
"547","k","0","0","-1","107","74","27","1","3","0","3"
"989","f","2","1","2","108","94","74","0","3","1","3"
"null","null","-1","0","-1","109","17","85","0","3","0","3"
"499","f","2","1","2","110","6","47","0","3","0","3"
"545","f","2","1","2","111","30","85","1","3","0","3"
"853","k","3","0","0","112","58","37","0","3","1","3"
"1566","f","2","1","2","113","44","84","0","3","1","3"
"1001","f","3","1","0","114","78","34","1","3","1","3"
"1432","f","3","1","0","115","15","88","0","3","1","3"
"935","d","2","1","2","116","31","49","1","3","0","3"
"1295","f","2","1","2","117","3","26","1","3","1","3"
"1444","k","0","0","-1","118","6","31","0","3","0","3"
"1341","k","3","0","0","119","83","91","0","3","1","3"
"977","f","3","1","0","120","54","62","1","3","0","3"
"1223","f","2","1","2","121","74","0","1","3","0","3"
"665","k","3","0","0","122","82","90","1","3","1","3"
"814","f","3","1","0","123","75","56","0","4","0","3"
"1083","f","4","1","1","124","72","82","1","4","0","3"
"1613","k","3","0","0","125","86","43","1","4","1","3"
"776","k","3","0","0","126","20","68","1","4","1","3"
"705","k","3","0","0","127","76","33","0","4","1","3"
"1287","k","0","0","-1","128","96","67","0","4","0","3"
"644","k","0","0","-1","129","35","64","0","4","0","3"
"1427","f","2","1","2","130","27","36","1","4","1","3"
"733","f","3","1","0","131","61","32","0","4","0","3"
"672","f","2","1","2","132","13","38","1","4","0","3"
"907","k","3","0","0","133","41","88","0","4","1","3"
"1024","f","2","1","2","134","83","16","1","4","1","3"
"1244","k","0","0","-1","135","81","12","0","4","0","3"
"877","f","3","1","0","136","85","57","1","4","1","3"
"1565","k","3","0","0","137","36","9","1","4","1","3"
"574","f","2","1","2","138","51","60","1","4","1","3"
"1386","k","0","0","-1","139","67","27","0","4","0","3"
"894","f","2","1","2","140","42","68","1","4","0","3"
"1570","f","4","1","1","141","22","64","0","4","0","3"
"null","null","-1","0","-1","142","68","82","0","4","1","3"
"1052","f","2","1","2","143","97","83","1","5","1","3"
"893","f","2","1","2","144","43","93","1","5","1","3"
"1177","k","0","0","-1","145","68","42","1","5","0","3"
"505","d","2","1","2","146","75","13","0","5","1","3"
"880","f","2","1","2","147","32","90","1","5","0","3"
"1154","k","0","0","-1","148","83","78","1","5","0","3"
"523","f","2","1","2","149","15","94","0","5","0","3"
"945","k","3","0","0","150","45","89","1","5","1","3"
"930","k","0","0","-1","151","54","33","1","5","0","3"
"672","d","4","1","1","152","12","74","0","5","0","3"
"1191","f","4","1","1","153","55","13","0","5","1","3"
"1357","k","0","0","-1","154","3","14","1","5","0","3"
"1295","k","3","0","0","155","43","72","1","5","1","3"
"934","k","3","0","0","156","99","95","0","5","1","3"
"713","f","2","1","2","157","73","8","0","5","0","3"
"757","k","0","0","-1","158","72","87","1","5","0","3"
"1217","k","3","0","0","159","23","9","0","5","1","3"
"1282","d","3","1","0","160","5","32","0","5","0","3"
"1168","k","3","0","0","161","41","57","0","5","1","3"
"675","d","3","1","0","162","18","5","0","5","1","3"
"1635","k","3","0","0","163","31","15","1","6","1","3"
"706","k","0","0","-1","164","77","71","0","6","0","3"
"1027","k","0","0","-1","165","32","33","1","6","0","3"
"543","k","3","0","0","166","18","50","0","6","1","3"
"1056","f","2","1","2","167","47","16","0","6","0","3"
"1003","f","2","1","2","168","68","22","1","6","0","3"
"893","d","2","1","2","169","30","31","0","6","1","3"
"715","f","3","1","0","170","26","58","0","6","1","3"
"650","k","3","0","0","171","92","62","0","6","1","3"
"1447","d","3","1","0","172","14","49","0","6","0","3"
"1045","f","3","1","0","173","39","20","0","6","0","3"
"773","k","3","0","0","174","60","8","1","6","1","3"
"1397","k","0","0","-1","175","64","87","1","6","0","3"
"1005","f","2","1","2","176","98","75","1","6","1","3"
"675","k","3","0","0","177","42","98","1","6","1","3"
"1316","k","0","0","-1","178","74","8","1","6","0","3"
"1223","k","3","0","0","179","9","23","0","6","1","3"
"1325","d","2","1","2","180","90","59","1","6","0","3"
"1325","f","3","1","0","181","50","49","0","6","1","3"
"954","f","2","1","2","182","79","91","1","6","0","3"
"1707","f","2","1","2","183","1","28","1","7","1","3"
"1346","k","0","0","-1","184","88","42","1","7","0","3"
"543","f","3","1","0","185","96","46","0","7","0","3"
"623","k","3","0","0","186","89","22","1","7","1","3"
"902","f","2","1","2","187","72","10","0","7","0","3"
"971","f","4","1","1","188","21","9","1","7","1","3"
"1355","k","3","0","0","189","67","47","1","7","1","3"
"1012","f","2","1","2","190","87","56","0","7","1","3"
"1172","f","2","1","2","191","57","17","0","7","1","3"
"1220","d","2","1","2","192","16","61","1","7","1","3"
"1182","k","0","0","-1","193","80","18","0","7","0","3"
"1505","k","0","0","-1","194","42","86","1","7","0","3"
"1035","k","0","0","-1","195","83","62","0","7","0","3"
"961","f","2","1","2","196","62","47","0","7","0","3"
"1237","k","3","0","0","197","73","13","1","7","1","3"
"1832","f","2","1","2","198","11","80","1","7","0","3"
"957","k","0","0","-1","199","57","70","0","7","0","3"
"1429","k","3","0","0","200","89","75","0","7","1","3"
"1051","f","2","1","2","201","28","95","0","7","0","3"
"1266","k","3","0","0","202","40","58","1","7","1","3"
"1155","f","3","1","0","203","10","18","1","8","0","3"
"1393","f","2","1","2","204","95","39","0","8","1","3"
"342","k","0","0","-1","205","48","47","1","8","0","3"
"667","k","0","0","-1","206","48","57","0","8","0","3"
"1113","k","0","0","-1","207","42","38","1","8","0","3"
"805","k","3","0","0","208","96","83","1","8","1","3"
"254","f","2","1","2","209","84","20","0","8","1","3"
"1033","k","3","0","0","210","40","41","0","8","1","3"
"1452","k","3","0","0","211","75","10","0","8","1","3"
"623","d","2","1","2","212","71","27","1","8","0","3"
"856","k","3","0","0","213","45","46","0","8","1","3"
"588","f","2","1","2","214","86","33","0","8","1","3"
"1264","k","0","0","-1","215","56","75","0","8","0","3"
"1474","f","2","1","2","216","39","10","1","8","0","3"
"1142","k","3","0","0","217","95","33","1","8","1","3"
"1515","f","2","1","2","218","27","62","0","8","0","3"
"728","f","3","1","0","219","25","18","0","8","1","3"
"673","d","2","1","2","220","39","33","1","8","0","3"
"1021","k","3","0","0","221","85","38","1","8","1","3"
"1511","f","2","1","2","222","21","76","1","8","0","3"
"915","d","2","1","2","223","42","16","1","9","0","3"
"1273","d","4","1","1","224","64","16","1","9","0","3"
"1534","k","0","0","-1","225","66","26","0","9","0","3"
"753","f","2","1","2","226","89","55","1","9","1","3"
"null","null","-1","0","-1","227","43","12","0","9","0","3"
"1459","f","3","1","0","228","24","43","1","9","1","3"
"1832","k","3","0","0","229","45","82","0","9","1","3"
"869","f","3","1","0","230","72","60","1","9","0","3"
"921","k","0","0","-1","231","63","92","0","9","0","3"
"1022","k","0","0","-1","232","1","56","1","9","0","3"
"1322","k","0","0","-1","233","20","69","0","9","0","3"
"null","null","-1","0","-1","234","79","59","1","9","1","3"
"null","null","-1","1","-1","235","34","47","1","9","1","3"
"null","null","-1","1","-1","236","29","14","0","9","1","3"
"null","null","-1","0","-1","237","66","16","0","9","0","3"
"null","null","-1","1","-1","238","13","68","0","9","1","3"
"null","null","-1","0","-1","239","71","37","1","9","1","3"
"null","null","-1","1","-1","240","80","17","0","9","1","3"
"null","null","-1","0","-1","241","51","97","0","9","1","3"
"null","null","-1","1","-1","242","68","37","1","9","0","3"
