"rt","key_press","reward","type","marble","trial_num","stim_1","stim_2","change_index","block","changed","marble_set"
"7009.5","d","2","1","2","1","47","28","0","0","0","3"
"3213","f","3","1","0","2","23","6","0","0","0","3"
"1731.699999999255","f","2","1","2","3","92","0","0","0","0","3"
"597.8999999985099","d","3","1","0","4","57","76","0","0","0","3"
"638.5","f","2","1","2","5","29","70","0","0","0","3"
"539.1000000014901","d","2","1","2","6","46","56","0","0","0","3"
"768.6999999992549","f","2","1","2","7","33","73","0","0","0","3"
"729.6999999992549","d","4","1","1","8","85","20","0","0","0","3"
"664","d","3","1","0","9","84","79","0","0","0","3"
"1015.5","f","2","1","2","10","31","61","0","0","0","3"
"403.3999999985099","d","3","1","0","11","41","88","0","0","0","3"
"772.2000000029802","d","2","1","2","12","79","72","0","0","0","3"
"845.6999999992549","f","2","1","2","13","54","55","0","0","0","3"
"796.1999999992549","d","3","1","0","14","72","63","0","0","0","3"
"743.5","d","4","1","1","15","22","42","0","0","0","3"
"738.1000000014901","f","2","1","2","16","42","47","0","0","0","3"
"533","d","2","1","2","17","76","71","0","0","0","3"
"708.7000000029802","f","3","1","0","18","39","66","0","0","0","3"
"590.6999999992549","d","2","1","2","19","40","44","0","0","0","3"
"108","d","2","1","2","20","98","12","0","0","0","3"
"19056.39999999851","j","3","0","0","21","86","3","0","0","0","3"
"615","k","3","0","0","22","79","33","1","0","1","3"
"491.6000000014901","k","0","0","-1","23","88","47","1","0","0","3"
"494.8999999985099","j","3","0","0","24","26","35","0","0","0","3"
"710.8999999985099","k","0","0","-1","25","40","12","1","0","0","3"
"593.3999999985099","k","3","0","0","26","39","75","0","0","1","3"
"1174.4000000022352","k","0","0","-1","27","28","73","0","0","0","3"
"2662.10000000149","j","0","0","-1","28","43","15","0","0","1","3"
"650.8000000007451","k","0","0","-1","29","58","46","0","0","0","3"
"351.1000000014901","j","3","0","0","30","33","46","0","0","0","3"
"703.6999999992549","j","3","0","0","31","78","59","0","0","0","3"
"631.3000000007451","j","0","0","-1","32","14","53","1","0","1","3"
"424.80000000074506","j","0","0","-1","33","65","77","0","0","1","3"
"9.300000000745058","k","3","0","0","34","51","65","1","0","1","3"
"256.30000000074506","k","0","0","-1","35","81","38","1","0","0","3"
"89","k","3","0","0","36","51","1","1","0","1","3"
"135.60000000149012","k","0","0","-1","37","84","76","1","0","0","3"
"49.30000000074506","k","3","0","0","38","17","37","1","0","1","3"
"8.399999998509884","k","3","0","0","39","52","68","0","0","1","3"
"191.59999999776483","k","3","0","0","40","66","32","0","0","1","3"
"19030.099999997765","","","","","","","","","","",""
"2568.699999999255","","","","","","","","","","",""
"3734.10000000149","","","","","","","","","","",""
"2439.699999999255","","","","","","","","","","",""
"4657.60000000149","","","","","","","","","","",""
"7989.10000000149","","","","","","","","","","",""
"2751.300000000745","","","","","","","","","","",""
"10214.699999999255","","","","","","","","","","",""
"2940.800000000745","","","","","","","","","","",""
"5740.199999999255","","","","","","","","","","",""
"2781","","","","","","","","","","",""
"5162.300000000745","","","","","","","","","","",""
"4526.800000000745","","","","","","","","","","",""
"4304.400000002235","","","","","","","","","","",""
"2788.39999999851","","","","","","","","","","",""
"null","null","-1","0","-1","56","79","14","1","0","1","3"
"null","null","-1","1","-1","57","77","56","1","0","0","3"
"605.6999999992549","d","2","1","2","58","72","56","0","0","1","3"
"1653.800000000745","k","0","0","-1","59","40","93","0","0","0","3"
"null","null","-1","1","-1","60","31","3","0","0","1","3"
"1692.1000000014901","j","0","0","-1","61","13","7","1","0","1","3"
"1271.5","k","3","0","0","62","93","14","0","0","1","3"
"null","null","-1","0","-1","63","42","74","0","0","0","3"
"171.90000000223517","d","2","1","2","64","21","71","1","0","0","3"
"1415","f","3","1","0","65","60","47","1","0","1","3"
"1836.699999999255","f","3","1","0","66","19","50","0","0","0","3"
"835.0999999977648","k","3","0","0","67","11","84","1","0","1","3"
"1095.300000000745","f","3","1","0","68","62","83","1","0","0","3"
"915.5","d","2","1","2","69","12","83","1","0","0","3"
"1406.5","k","3","0","0","70","87","65","1","0","1","3"
"917","j","3","0","0","71","3","13","1","0","0","3"
"786.1000000014901","d","2","1","2","72","53","5","0","0","1","3"
"1113.800000000745","f","3","1","0","73","37","63","0","0","0","3"
"1186.6000000014901","k","3","0","0","74","79","53","0","0","1","3"
"737.6000000014901","j","3","0","0","75","19","21","0","0","0","3"
"1700.300000000745","k","0","0","-1","76","37","16","0","1","0","3"
"945.5999999977648","d","2","1","2","77","32","40","1","1","1","3"
"1082","j","0","0","-1","78","77","14","0","1","1","3"
"1291.8999999985099","d","2","1","2","79","77","90","1","1","0","3"
"1642","d","3","1","0","80","54","8","1","1","0","3"
"945.1999999992549","k","3","0","0","81","46","62","0","1","1","3"
"953.4000000022352","k","3","0","0","82","94","42","1","1","1","3"
"902.5","k","3","0","0","83","92","96","1","1","1","3"
"1077.7999999970198","k","0","0","-1","84","39","23","0","1","0","3"
"857.8000000007451","f","2","1","2","85","35","4","0","1","0","3"
"969.1000000014901","k","3","0","0","86","44","35","0","1","1","3"
"936.6999999992549","f","3","1","0","87","14","36","1","1","0","3"
"994.5","d","4","1","1","88","61","27","1","1","0","3"
"1269.8999999985099","j","3","0","0","89","19","53","0","1","0","3"
"872.0999999977648","f","2","1","2","90","45","49","1","1","1","3"
"1311.7000000029802","j","3","0","0","91","68","7","1","1","0","3"
"874.6000000014901","d","2","1","2","92","61","76","1","1","1","3"
"909.9000000022352","k","3","0","0","93","73","54","0","1","1","3"
"844.8999999985099","f","2","1","2","94","25","47","0","1","0","3"
"1624","f","2","1","2","95","65","8","0","1","1","3"
"1518.800000000745","k","0","0","-1","96","34","68","0","2","0","3"
"1463.300000000745","d","2","1","2","97","91","89","1","2","1","3"
"1559.8999999985099","f","3","1","0","98","19","74","1","2","1","3"
"1357","f","4","1","1","99","80","63","1","2","0","3"
"1789.800000000745","j","3","0","0","100","74","52","0","2","0","3"
"1161.0999999977648","f","3","1","0","101","84","46","1","2","0","3"
"890.1000000014901","j","3","0","0","102","46","85","0","2","0","3"
"717.1999999992549","k","0","0","-1","103","72","45","1","2","0","3"
"908.3999999985099","f","2","1","2","104","7","60","0","2","1","3"
"668.3999999985099","d","2","1","2","105","33","9","0","2","1","3"
"807.1000000014901","k","3","0","0","106","90","78","1","2","1","3"
"1098.699999999255","d","2","1","2","107","13","3","0","2","1","3"
"null","null","-1","1","-1","108","9","63","1","2","0","3"
"1289.199999999255","d","2","1","2","109","37","95","1","2","0","3"
"968.4000000022352","k","0","0","-1","110","15","97","0","2","0","3"
"null","null","-1","0","-1","111","63","29","0","2","0","3"
"851.3000000007451","k","3","0","0","112","10","98","0","2","1","3"
"900.5","d","2","1","2","113","46","30","0","2","1","3"
"698.3000000007451","j","0","0","-1","114","17","64","1","2","1","3"
"927.8000000007451","k","3","0","0","115","93","1","1","2","1","3"
"972.7999999970198","k","0","0","-1","116","76","27","1","3","0","3"
"1309.1000000014901","d","2","1","2","117","38","43","0","3","0","3"
"905.6000000014901","j","3","0","0","118","17","2","1","3","0","3"
"792.0999999977648","f","2","1","2","119","35","31","0","3","0","3"
"1100.5","k","0","0","-1","120","49","69","1","3","0","3"
"1015.7000000029802","j","0","0","-1","121","50","86","0","3","1","3"
"821","f","3","1","0","122","93","83","1","3","0","3"
"1277.300000000745","f","2","1","2","123","95","26","0","3","1","3"
"1626.7999999970198","d","3","1","0","124","58","56","1","3","1","3"
"1541.1000000014901","f","2","1","2","125","8","80","0","3","0","3"
"886.5","k","0","0","-1","126","4","19","1","3","0","3"
"830.5","j","3","0","0","127","48","46","0","3","0","3"
"625.1999999992549","k","3","0","0","128","6","62","1","3","1","3"
"1002.3999999985099","k","3","0","0","129","25","35","0","3","1","3"
"624","k","0","0","-1","130","55","34","1","3","0","3"
"683.5","d","3","1","0","131","83","88","1","3","1","3"
"1218.8999999985099","d","3","1","0","132","5","19","1","3","1","3"
"841.5","k","3","0","0","133","50","74","0","3","1","3"
"1056.5999999977648","f","3","1","0","134","95","34","0","3","1","3"
"1261.800000000745","f","3","1","0","135","59","29","0","3","1","3"
"693.1999999992549","d","2","1","2","136","54","9","0","4","1","3"
"1279.5999999977648","f","4","1","1","137","75","76","1","4","0","3"
"1263.800000000745","f","3","1","0","138","16","68","1","4","1","3"
"1020","k","0","0","-1","139","48","98","1","4","0","3"
"1314.699999999255","f","4","1","1","140","37","7","1","4","1","3"
"1219.300000000745","k","3","0","0","141","54","39","0","4","1","3"
"1108.199999999255","f","3","1","0","142","65","58","1","4","0","3"
"1659.8999999985099","f","4","1","1","143","48","34","0","4","1","3"
"1216.1000000014901","f","2","1","2","144","81","6","0","4","1","3"
"1098.199999999255","d","2","1","2","145","24","61","1","4","0","3"
"1055.3999999985099","k","0","0","-1","146","22","86","0","4","0","3"
"1049.3999999985099","f","2","1","2","147","85","10","1","4","0","3"
"933.9000000022352","k","0","0","-1","148","86","19","0","4","0","3"
"771.5999999977648","j","3","0","0","149","36","84","0","4","0","3"
"968.5","f","4","1","1","150","63","89","1","4","1","3"
"1071.800000000745","j","0","0","-1","151","21","58","1","4","1","3"
"1012.1999999992549","k","3","0","0","152","76","17","1","4","1","3"
"1155.7999999970198","k","0","0","-1","153","71","86","0","4","0","3"
"1025","j","0","0","-1","154","13","44","0","4","1","3"
"1121.5","k","0","0","-1","155","58","30","0","4","0","3"
"1054.2000000029802","d","2","1","2","156","60","4","0","5","1","3"
"873","f","2","1","2","157","83","73","1","5","0","3"
"701.3999999985099","k","0","0","-1","158","40","75","1","5","0","3"
"631.9000000022352","k","3","0","0","159","56","20","0","5","1","3"
"1171.699999999255","k","3","0","0","160","75","90","1","5","1","3"
"1190.199999999255","j","3","0","0","161","16","19","0","5","0","3"
"1088.7000000029802","f","3","1","0","162","45","3","0","5","0","3"
"1336.7999999970198","k","3","0","0","163","85","70","0","5","1","3"
"828.8999999985099","f","2","1","2","164","6","34","1","5","1","3"
"980.9000000022352","f","4","1","1","165","89","60","0","5","1","3"
"1343.6000000014901","f","2","1","2","166","68","63","1","5","0","3"
"1060.699999999255","j","3","0","0","167","37","21","0","5","0","3"
"1154","k","3","0","0","168","28","14","1","5","1","3"
"767.0999999977648","f","2","1","2","169","90","98","1","5","1","3"
"970.5999999977648","f","2","1","2","170","83","43","0","5","1","3"
"1206.699999999255","k","0","0","-1","171","34","73","0","5","0","3"
"797.9000000022352","f","3","1","0","172","89","33","1","5","0","3"
"800.1999999992549","k","0","0","-1","173","15","76","0","5","0","3"
"1223.4000000022352","j","0","0","-1","174","32","70","1","5","1","3"
"1664.1000000014901","d","2","1","2","175","35","33","1","5","0","3"
"1211.0999999977648","d","3","1","0","176","86","39","1","6","0","3"
"1005.3000000007451","f","4","1","1","177","5","1","0","6","1","3"
"1064.699999999255","j","0","0","-1","178","87","22","1","6","1","3"
"663","j","0","0","-1","179","42","66","0","6","1","3"
"869","j","3","0","0","180","26","57","1","6","0","3"
"1182.300000000745","k","3","0","0","181","23","16","1","6","1","3"
"1078.300000000745","j","0","0","-1","182","36","44","1","6","1","3"
"1248.5","d","3","1","0","183","82","61","0","6","0","3"
"1049.300000000745","k","0","0","-1","184","1","38","1","6","0","3"
"1132.699999999255","k","0","0","-1","185","63","41","1","6","0","3"
"1139.300000000745","f","4","1","1","186","82","26","1","6","0","3"
"921.8000000007451","j","3","0","0","187","7","95","1","6","0","3"
"985","f","3","1","0","188","20","88","0","6","1","3"
"1027.699999999255","d","2","1","2","189","44","68","0","6","1","3"
"1524.800000000745","k","3","0","0","190","25","17","0","6","1","3"
"1068.699999999255","f","2","1","2","191","29","27","0","6","0","3"
"543.5","d","4","1","1","192","87","16","0","6","1","3"
"1057.699999999255","f","2","1","2","193","45","90","0","6","0","3"
"1376.4000000022352","f","2","1","2","194","57","91","1","6","1","3"
"1187.5","j","3","0","0","195","53","37","0","6","0","3"
"996.6999999992549","k","3","0","0","196","10","80","0","7","1","3"
"795.1999999992549","k","0","0","-1","197","23","15","0","7","0","3"
"891.7000000029802","f","2","1","2","198","94","50","0","7","0","3"
"677.5","f","2","1","2","199","14","61","0","7","1","3"
"1312.5","d","3","1","0","200","88","0","0","7","0","3"
"1256.6000000014901","j","3","0","0","201","10","89","0","7","0","3"
"1234.6000000014901","k","3","0","0","202","15","64","0","7","1","3"
"1079.3999999985099","j","3","0","0","203","39","83","1","7","0","3"
"987.3999999985099","k","3","0","0","204","79","62","1","7","1","3"
"1141","f","2","1","2","205","99","20","1","7","0","3"
"1443.5999999977648","j","3","0","0","206","77","37","0","7","0","3"
"1092.8999999985099","d","4","1","1","207","45","54","1","7","0","3"
"1165","f","4","1","1","208","59","39","1","7","1","3"
"1098.300000000745","d","2","1","2","209","9","37","1","7","1","3"
"1115.7000000029802","k","0","0","-1","210","39","76","1","7","0","3"
"1045.800000000745","f","3","1","0","211","73","36","1","7","0","3"
"960.6000000014901","d","2","1","2","212","85","69","0","7","1","3"
"1039","k","3","0","0","213","13","33","1","7","1","3"
"926.6999999992549","d","3","1","0","214","75","98","0","7","1","3"
"905.5999999977648","k","3","0","0","215","55","20","1","7","1","3"
"1912.800000000745","f","3","1","0","216","73","59","1","8","1","3"
"836","f","2","1","2","217","75","78","0","8","0","3"
"1945.5","k","3","0","0","218","28","36","1","8","1","3"
"1761","j","0","0","-1","219","99","35","0","8","1","3"
"1294.5","f","2","1","2","220","80","25","0","8","0","3"
"779.3000000007451","k","0","0","-1","221","56","41","1","8","0","3"
"724.6000000014901","j","0","0","-1","222","15","92","1","8","1","3"
"1234.1000000014901","f","2","1","2","223","7","83","0","8","1","3"
"985","d","3","1","0","224","62","94","1","8","0","3"
"1238.5","f","3","1","0","225","50","89","0","8","0","3"
"1274.699999999255","f","2","1","2","226","67","81","1","8","1","3"
"695.5","j","3","0","0","227","62","17","1","8","0","3"
"914","k","3","0","0","228","61","15","0","8","1","3"
"1256.7000000029802","j","0","0","-1","229","50","34","1","8","1","3"
"736.0999999977648","d","2","1","2","230","92","47","0","8","1","3"
"1190.800000000745","k","0","0","-1","231","41","64","1","8","0","3"
"839.6000000014901","f","2","1","2","232","11","37","0","8","1","3"
"1373","d","2","1","2","233","6","71","1","8","0","3"
"1356.4000000022352","j","3","0","0","234","47","57","0","8","0","3"
"906.5999999977648","j","3","0","0","235","10","77","0","8","0","3"
"919.1000000014901","d","3","1","0","236","22","91","1","9","1","3"
"1600.5","d","2","1","2","237","91","21","0","9","1","3"
"861.2000000029802","k","0","0","-1","238","25","29","1","9","0","3"
"1786.2999999970198","f","3","1","0","239","2","98","0","9","1","3"
"1363.0999999977648","k","3","0","0","240","92","77","1","9","1","3"
"1708.9000000022352","f","3","1","0","241","58","64","0","9","0","3"
"1176","k","3","0","0","242","58","85","1","9","1","3"
"1333.0999999977648","k","3","0","0","243","79","41","0","9","1","3"
"1347.199999999255","k","3","0","0","244","91","28","0","9","1","3"
"1239.800000000745","k","0","0","-1","245","18","60","1","9","0","3"
"1509.6000000014901","j","3","0","0","246","22","0","0","9","0","3"
"580.3999999985099","f","2","1","2","247","63","98","0","9","1","3"
"1207.5","j","3","0","0","248","48","51","0","9","0","3"
"1282.8999999985099","k","0","0","-1","249","38","47","0","9","0","3"
"1294.699999999255","k","3","0","0","250","48","11","1","9","1","3"
"771.0999999977648","f","2","1","2","251","10","52","1","9","0","3"
"956.1999999992549","d","4","1","1","252","2","73","1","9","0","3"
"1083.2999999970198","f","4","1","1","253","52","96","1","9","1","3"
"1197.5","d","3","1","0","254","67","90","0","9","0","3"
"1912.699999999255","f","2","1","2","255","48","35","1","9","0","3"
