"rt","key_press","reward","type","marble","trial_num","stim_1","stim_2","change_index","block","changed","marble_set"
"154","d","2","1","2","1","41","90","0","0","0","0"
"594","d","2","1","2","2","38","58","0","0","0","0"
"117","d","3","1","1","3","14","22","0","0","0","0"
"39","d","2","1","2","4","67","0","0","0","0","0"
"465","d","2","1","2","5","75","29","0","0","0","0"
"426","d","4","1","0","6","96","10","0","0","0","0"
"353","d","2","1","2","7","31","43","0","0","0","0"
"397","d","2","1","2","8","72","95","0","0","0","0"
"362","d","4","1","0","9","6","37","0","0","0","0"
"458","d","2","1","2","10","63","65","0","0","0","0"
"126","d","3","1","1","11","32","9","0","0","0","0"
"196","d","3","1","1","12","74","32","0","0","0","0"
"5","d","2","1","2","13","11","85","0","0","0","0"
"148","d","2","1","2","14","92","9","0","0","0","0"
"88","d","2","1","2","15","95","61","0","0","0","0"
"35","d","2","1","2","16","38","82","0","0","0","0"
"136","d","3","1","1","17","58","79","0","0","0","0"
"426","d","2","1","2","18","70","7","0","0","0","0"
"5","d","4","1","0","19","13","19","0","0","0","0"
"23","d","2","1","2","20","74","94","0","0","0","0"
"1067","j","3","0","1","21","28","78","0","0","0","0"
"685","j","3","0","1","22","75","78","0","0","0","0"
"1066","j","3","0","1","23","71","17","0","0","0","0"
"1116","k","0","0","-1","24","44","25","1","0","0","0"
"1366","j","3","0","1","25","52","4","1","0","0","0"
"1036","j","0","0","-1","26","38","34","1","0","1","0"
"546","j","0","0","-1","27","78","35","0","0","1","0"
"786","j","0","0","-1","28","34","18","1","0","1","0"
"768","k","0","0","-1","29","20","2","1","0","0","0"
"26","j","0","0","-1","30","34","31","1","0","1","0"
"1214","k","3","0","1","31","19","11","1","0","1","0"
"2117","k","3","0","1","32","53","4","1","0","1","0"
"1525","k","3","0","1","33","66","87","0","0","1","0"
"1683","k","3","0","1","34","53","24","0","0","1","0"
"1285","k","3","0","1","35","68","80","0","0","1","0"
"1798","j","3","0","1","36","34","17","0","0","0","0"
"1585","j","3","0","1","37","86","6","1","0","0","0"
"1275","j","3","0","1","38","73","10","0","0","0","0"
"1145","k","0","0","-1","39","34","2","1","0","0","0"
"837","j","0","0","-1","40","28","13","0","0","1","0"
"10638","","","","","","","","","","",""
"1452","f","2","1","2","42","50","83","1","0","0","0"
"1414","k","0","0","-1","43","12","83","1","0","0","0"
"null","null","-1","0","-1","44","81","5","1","0","0","0"
"1228","k","3","0","1","45","25","18","1","0","1","0"
"979","f","2","1","2","46","27","74","1","0","1","0"
"948","k","3","0","1","47","17","11","0","0","1","0"
"1338","f","2","1","2","48","58","5","0","0","1","0"
"1036","f","4","1","0","49","26","74","1","0","1","0"
"1601","k","0","0","-1","50","86","11","0","0","0","0"
"1204","j","0","0","-1","51","12","68","1","0","1","0"
"865","f","2","1","2","52","14","37","0","0","1","0"
"968","f","3","1","1","53","9","57","0","0","0","0"
"968","k","3","0","1","54","53","48","1","0","1","0"
"1078","k","0","0","-1","55","48","22","1","0","0","0"
"1490","k","0","0","-1","56","65","8","0","0","0","0"
"1129","f","2","1","2","57","5","30","0","0","1","0"
"1320","k","0","0","-1","58","78","60","1","0","0","0"
"921","f","3","1","1","59","89","82","0","0","0","0"
"1369","f","2","1","2","60","75","98","0","0","0","0"
"1529","f","2","1","2","61","70","8","0","0","1","0"
"1262","f","3","1","1","62","38","36","0","1","1","0"
"1033","k","0","0","-1","63","16","66","1","1","0","0"
"1368","j","3","0","1","64","95","6","0","1","0","0"
"1709","k","3","0","1","65","98","8","1","1","1","0"
"972","f","3","1","1","66","11","90","0","1","0","0"
"1619","k","3","0","1","67","68","21","1","1","1","0"
"996","f","2","1","2","68","70","3","0","1","1","0"
"684","k","3","0","1","69","93","38","1","1","1","0"
"1170","k","3","0","1","70","20","74","1","1","1","0"
"936","f","3","1","1","71","47","2","0","1","0","0"
"1389","f","2","1","2","72","52","37","1","1","1","0"
"1362","j","3","0","1","73","60","88","0","1","0","0"
"1208","f","2","1","2","74","79","20","1","1","0","0"
"1915","j","3","0","1","75","58","68","1","1","0","0"
"1043","f","3","1","1","76","56","77","1","1","0","0"
"1210","f","2","1","2","77","26","46","0","1","1","0"
"1003","f","2","1","2","78","77","98","0","1","0","0"
"868","j","0","0","-1","79","2","67","0","1","1","0"
"1384","k","3","0","1","80","60","31","0","1","1","0"
"1529","f","4","1","0","81","48","40","1","1","0","0"
"null","null","-1","0","-1","82","21","71","1","2","0","0"
"982","k","0","0","-1","83","50","18","0","2","0","0"
"1093","f","2","1","2","84","85","56","1","2","1","0"
"1159","f","3","1","1","85","30","17","1","2","1","0"
"878","k","3","0","1","86","40","57","1","2","1","0"
"877","k","3","0","1","87","5","40","1","2","1","0"
"637","f","2","1","2","88","27","81","1","2","1","0"
"1596","k","0","0","-1","89","77","28","0","2","0","0"
"1279","j","3","0","1","90","80","86","0","2","0","0"
"1073","f","3","1","1","91","7","83","0","2","1","0"
"780","j","0","0","-1","92","23","3","1","2","1","0"
"937","f","4","1","0","93","73","39","1","2","0","0"
"1320","f","2","1","2","94","5","93","1","2","0","0"
"1032","d","2","1","2","95","62","74","1","2","0","0"
"1202","f","2","1","2","96","97","66","0","2","1","0"
"1575","k","0","0","-1","97","12","60","0","2","0","0"
"1392","f","2","1","2","98","35","65","0","2","0","0"
"1257","k","3","0","1","99","50","53","0","2","1","0"
"942","k","0","0","-1","100","13","61","0","2","0","0"
"727","f","2","1","2","101","51","26","0","2","1","0"
"null","null","-1","0","-1","102","78","92","1","3","1","0"
"1262","k","0","0","-1","103","92","86","1","3","0","0"
"821","f","2","1","2","104","34","57","1","3","0","0"
"1199","f","3","1","1","105","53","89","0","3","0","0"
"610","j","3","0","1","106","1","76","1","3","0","0"
"1030","k","3","0","1","107","21","79","1","3","1","0"
"1317","j","0","0","-1","108","35","56","0","3","1","0"
"1719","f","3","1","1","109","80","62","0","3","0","0"
"1479","f","2","1","2","110","88","76","1","3","0","0"
"1077","f","3","1","1","111","42","82","0","3","0","0"
"1209","k","3","0","1","112","74","4","0","3","1","0"
"989","f","3","1","1","113","58","41","1","3","0","0"
"644","k","3","0","1","114","85","28","1","3","1","0"
"1156","f","2","1","2","115","7","42","0","3","1","0"
"1166","f","2","1","2","116","87","98","1","3","0","0"
"958","f","2","1","2","117","52","98","0","3","1","0"
"1156","k","3","0","1","118","97","9","1","3","1","0"
"1513","k","3","0","1","119","52","64","0","3","1","0"
"1071","j","3","0","1","120","36","34","0","3","0","0"
"880","f","4","1","0","121","7","57","0","3","1","0"
"1246","k","0","0","-1","122","70","4","1","4","0","0"
"1557","f","3","1","1","123","66","64","0","4","1","0"
"964","f","2","1","2","124","82","11","1","4","0","0"
"1018","f","2","1","2","125","36","72","0","4","1","0"
"912","f","2","1","2","126","17","46","0","4","1","0"
"650","k","0","0","-1","127","80","24","1","4","0","0"
"771","k","3","0","1","128","58","31","0","4","1","0"
"945","k","3","0","1","129","47","95","0","4","1","0"
"1250","f","2","1","2","130","74","7","1","4","1","0"
"1142","f","2","1","2","131","8","60","1","4","1","0"
"942","f","3","1","1","132","51","23","0","4","0","0"
"1260","f","3","1","1","133","56","2","1","4","1","0"
"1249","f","4","1","0","134","96","19","0","4","0","0"
"1560","k","0","0","-1","135","84","25","1","4","0","0"
"1203","f","2","1","2","136","59","12","1","4","0","0"
"null","null","-1","0","-1","137","99","64","1","4","0","0"
"1095","j","0","0","-1","138","47","88","0","4","1","0"
"1109","k","3","0","1","139","74","88","1","4","1","0"
"1160","j","3","0","1","140","8","19","0","4","0","0"
"976","j","3","0","1","141","99","69","0","4","0","0"
"1214","f","2","1","2","142","30","62","0","5","0","0"
"958","f","2","1","2","143","20","98","1","5","0","0"
"1022","f","2","1","2","144","32","92","1","5","1","0"
"1462","j","3","0","1","145","91","93","0","5","0","0"
"982","f","3","1","1","146","67","28","1","5","0","0"
"1027","j","3","0","1","147","24","57","0","5","0","0"
"null","null","-1","0","-1","148","34","56","0","5","1","0"
"858","f","3","1","1","149","45","14","0","5","1","0"
"1026","f","4","1","0","150","22","42","1","5","1","0"
"1259","f","2","1","2","151","80","59","0","5","1","0"
"1679","j","0","0","-1","152","30","43","1","5","1","0"
"958","f","3","1","1","153","70","58","0","5","0","0"
"1630","k","3","0","1","154","44","64","1","5","1","0"
"1501","k","0","0","-1","155","51","97","0","5","0","0"
"1707","j","0","0","-1","156","2","14","0","5","1","0"
"1348","k","3","0","1","157","64","37","1","5","1","0"
"959","f","4","1","0","158","80","35","1","5","0","0"
"1346","f","3","1","1","159","97","83","1","5","0","0"
"1007","k","3","0","1","160","28","68","1","5","1","0"
"1332","j","3","0","1","161","63","3","0","5","0","0"
"1832","f","2","1","2","162","58","78","0","6","1","0"
"1030","k","0","0","-1","163","13","12","0","6","0","0"
"1628","k","3","0","1","164","48","9","0","6","1","0"
"1128","k","0","0","-1","165","32","13","1","6","0","0"
"1457","f","2","1","2","166","64","39","0","6","0","0"
"1348","f","2","1","2","167","42","88","0","6","0","0"
"1117","f","2","1","2","168","70","67","1","6","0","0"
"1020","k","3","0","1","169","73","13","0","6","1","0"
"1463","k","3","0","1","170","52","95","1","6","1","0"
"934","f","3","1","1","171","10","42","0","6","1","0"
"1073","f","2","1","2","172","12","16","1","6","0","0"
"1520","k","3","0","1","173","25","12","0","6","1","0"
"1183","f","2","1","2","174","40","4","1","6","1","0"
"926","f","2","1","2","175","15","73","1","6","1","0"
"1747","k","0","0","-1","176","75","79","1","6","0","0"
"1119","f","3","1","1","177","80","78","1","6","0","0"
"1324","f","2","1","2","178","17","33","0","6","1","0"
"1423","k","0","0","-1","179","83","31","1","6","0","0"
"1622","k","3","0","1","180","73","26","1","6","1","0"
"1489","j","3","0","1","181","47","37","0","6","0","0"
"1780","f","2","1","2","182","57","50","0","7","1","0"
"1788","k","0","0","-1","183","79","14","0","7","0","0"
"1060","k","3","0","1","184","77","18","1","7","1","0"
"1220","f","3","1","1","185","2","62","0","7","0","0"
"1289","f","3","1","1","186","20","49","0","7","1","0"
"880","k","3","0","1","187","19","61","1","7","1","0"
"1058","f","2","1","2","188","69","34","1","7","0","0"
"848","k","0","0","-1","189","96","18","0","7","0","0"
"960","f","3","1","1","190","57","26","0","7","0","0"
"1279","f","2","1","2","191","38","51","1","7","1","0"
"1129","f","2","1","2","192","27","95","0","7","0","0"
"1667","k","0","0","-1","193","18","10","1","7","0","0"
"1499","j","3","0","1","194","72","86","0","7","0","0"
"1058","k","3","0","1","195","82","71","1","7","1","0"
"1898","k","3","0","1","196","54","69","1","7","1","0"
"1587","k","3","0","1","197","54","96","1","7","1","0"
"970","k","0","0","-1","198","60","35","0","7","0","0"
"1158","f","3","1","1","199","2","39","1","7","1","0"
"882","f","2","1","2","200","72","67","1","7","0","0"
"1154","f","4","1","0","201","56","76","0","7","1","0"
"null","null","-1","1","-1","202","12","33","1","8","1","0"
"995","k","0","0","-1","203","21","3","1","8","0","0"
"1130","f","2","1","2","204","33","45","0","8","1","0"
"1342","k","0","0","-1","205","3","55","1","8","0","0"
"1148","f","2","1","2","206","37","56","0","8","0","0"
"1220","f","2","1","2","207","48","93","1","8","1","0"
"1118","k","3","0","1","208","99","24","1","8","1","0"
"901","f","3","1","1","209","55","48","0","8","1","0"
"1011","k","3","0","1","210","82","12","0","8","1","0"
"1253","f","4","1","0","211","86","19","0","8","1","0"
"928","f","3","1","1","212","16","39","1","8","1","0"
"821","k","0","0","-1","213","8","95","1","8","0","0"
"1331","k","0","0","-1","214","85","80","0","8","0","0"
"1503","k","0","0","-1","215","68","93","0","8","0","0"
"1324","f","4","1","0","216","20","9","0","8","0","0"
"1378","k","0","0","-1","217","26","69","1","8","0","0"
"1115","f","3","1","1","218","65","84","1","8","0","0"
"1648","k","3","0","1","219","1","48","0","8","1","0"
"1360","f","3","1","1","220","41","94","0","8","0","0"
"1775","k","3","0","1","221","16","11","1","8","1","0"
"1691","f","4","1","0","222","21","63","1","9","1","0"
"1123","k","3","0","1","223","65","20","0","9","1","0"
"734","f","2","1","2","224","39","75","0","9","1","0"
"1795","k","0","0","-1","225","74","60","0","9","0","0"
"1122","f","2","1","2","226","83","95","1","9","0","0"
"968","f","3","1","1","227","80","19","1","9","1","0"
"1838","j","3","0","1","228","63","27","1","9","0","0"
"1603","k","3","0","1","229","83","41","1","9","1","0"
"1037","k","3","0","1","230","25","52","1","9","1","0"
"780","f","3","1","1","231","41","42","0","9","0","0"
"1017","f","3","1","1","232","48","55","0","9","1","0"
"null","null","-1","0","-1","233","77","71","0","9","0","0"
"1504","k","3","0","1","234","75","9","0","9","1","0"
"1268","f","2","1","2","235","16","71","1","9","1","0"
"1931","j","3","0","1","236","17","56","1","9","0","0"
"1099","j","3","0","1","237","14","4","0","9","0","0"
"809","f","2","1","2","238","62","76","1","9","0","0"
"1074","j","3","0","1","239","22","72","0","9","0","0"
"892","f","2","1","2","240","83","71","1","9","0","0"
"811","f","2","1","2","241","21","31","0","9","1","0"
