"rt","key_press","reward","type","marble","trial_num","stim_1","stim_2","change_index","block","changed","marble_set"
"11174.400000035763","d","4","1","1","1","90","72","0","0","0","3"
"3315.099999964237","f","2","1","2","2","28","68","0","0","0","3"
"765.6999999880791","d","2","1","2","3","75","19","0","0","0","3"
"2260.100000023842","d","2","1","2","4","49","46","0","0","0","3"
"801.1999999880791","f","2","1","2","5","40","77","0","0","0","3"
"810.3000000119209","d","2","1","2","6","47","16","0","0","0","3"
"134.39999997615814","d","2","1","2","7","38","42","0","0","0","3"
"355.9000000357628","f","3","1","0","8","34","52","0","0","0","3"
"76.5","f","2","1","2","9","40","90","0","0","0","3"
"284.39999997615814","f","2","1","2","10","30","95","0","0","0","3"
"840.5","f","2","1","2","11","8","10","0","0","0","3"
"435.5","f","3","1","0","12","92","81","0","0","0","3"
"395.89999997615814","f","3","1","0","13","73","78","0","0","0","3"
"4635.600000023842","d","3","1","0","14","54","88","0","0","0","3"
"820.8000000119209","f","3","1","0","15","3","21","0","0","0","3"
"3055.099999964237","d","4","1","1","16","2","13","0","0","0","3"
"1026","f","2","1","2","17","96","19","0","0","0","3"
"1099.300000011921","d","2","1","2","18","85","8","0","0","0","3"
"2266.600000023842","d","2","1","2","19","15","32","0","0","0","3"
"935.9000000357628","f","2","1","2","20","32","41","0","0","0","3"
"2855.100000023842","k","3","0","0","21","51","50","1","0","1","3"
"4274.900000035763","k","3","0","0","22","70","10","0","0","1","3"
"2514.600000023842","j","3","0","0","23","65","60","0","0","0","3"
"5046","k","0","0","-1","24","38","23","0","0","0","3"
"1360.3999999761581","j","3","0","0","25","45","7","0","0","0","3"
"1735.199999988079","k","3","0","0","26","54","41","0","0","1","3"
"1915.800000011921","j","3","0","0","27","1","72","1","0","0","3"
"2395.800000011921","j","0","0","-1","28","20","60","1","0","1","3"
"3375.5","j","3","0","0","29","16","69","1","0","0","3"
"1855.300000011921","j","3","0","0","30","23","88","1","0","0","3"
"1256.0999999642372","j","3","0","0","31","65","51","1","0","0","3"
"1693.2999999523163","k","3","0","0","32","81","12","1","0","1","3"
"1635.7999999523163","j","0","0","-1","33","91","46","1","0","1","3"
"1805.5","j","0","0","-1","34","61","74","1","0","1","3"
"2255.199999988079","k","3","0","0","35","58","0","1","0","1","3"
"2494.899999976158","k","3","0","0","36","92","65","0","0","1","3"
"2133.400000035763","j","3","0","0","37","85","51","0","0","0","3"
"2721.100000023842","j","3","0","0","38","77","75","1","0","0","3"
"3574.899999976158","k","3","0","0","39","92","57","0","0","1","3"
"2334.899999976158","j","3","0","0","40","83","45","0","0","0","3"
"9468.600000023842","","","","","","","","","","",""
"6537.699999988079","","","","","","","","","","",""
"5799.200000047684","","","","","","","","","","",""
"3389.2000000476837","","","","","","","","","","",""
"null","null","-1","1","-1","45","41","2","0","0","1","3"
"1485.199999988079","k","0","0","-1","46","65","40","0","0","0","3"
"null","null","-1","0","-1","47","56","78","0","0","0","3"
"1667.300000011921","d","3","1","0","48","8","42","1","0","1","3"
"null","null","-1","0","-1","49","80","17","1","0","1","3"
"null","null","-1","0","-1","50","64","13","0","0","1","3"
"1421.5","k","3","0","0","51","74","32","1","0","1","3"
"null","null","-1","1","-1","52","62","22","0","0","0","3"
"1558.2000000476837","k","0","0","-1","53","82","38","0","0","0","3"
"null","null","-1","1","-1","54","83","62","1","0","0","3"
"null","null","-1","1","-1","55","75","56","1","0","1","3"
"null","null","-1","1","-1","56","26","95","0","0","0","3"
"1518.0999999642372","j","0","0","-1","57","51","15","1","0","1","3"
"null","null","-1","1","-1","58","22","40","0","0","0","3"
"1145.3999999761581","k","0","0","-1","59","26","79","1","0","0","3"
"1277.4000000357628","d","2","1","2","60","69","53","1","0","1","3"
"null","null","-1","1","-1","61","90","54","0","0","1","3"
"1339.4000000357628","k","0","0","-1","62","67","15","1","0","0","3"
"1009.7999999523163","k","0","0","-1","63","81","70","1","0","0","3"
"1470.300000011921","d","2","1","2","64","59","64","0","0","1","3"
"null","null","-1","0","-1","65","85","87","1","1","1","3"
"null","null","-1","1","-1","66","51","3","0","1","1","3"
"1945.5","k","0","0","-1","67","96","30","1","1","0","3"
"1969.0999999642372","j","3","0","0","68","77","38","0","1","0","3"
"1366.199999988079","j","0","0","-1","69","82","11","1","1","1","3"
"null","null","-1","0","-1","70","53","79","0","1","1","3"
"null","null","-1","1","-1","71","51","0","1","1","0","3"
"null","null","-1","0","-1","72","56","31","0","1","1","3"
"null","null","-1","1","-1","73","99","59","1","1","1","3"
"1645.300000011921","f","2","1","2","74","51","1","0","1","0","3"
"null","null","-1","1","-1","75","74","51","0","1","1","3"
"1555.5","k","0","0","-1","76","81","87","1","1","0","3"
"1607.300000011921","j","3","0","0","77","54","66","0","1","0","3"
"null","null","-1","1","-1","78","43","69","0","1","0","3"
"null","null","-1","1","-1","79","9","40","1","1","1","3"
"1647.5","j","3","0","0","80","36","29","0","1","0","3"
"null","null","-1","1","-1","81","86","19","1","1","1","3"
"1712.3999999761581","d","3","1","0","82","56","46","1","1","1","3"
"1475.1000000238419","j","3","0","0","83","98","19","1","1","0","3"
"null","null","-1","1","-1","84","14","37","0","1","0","3"
"1432.3999999761581","d","2","1","2","85","54","65","1","2","0","3"
"1269.7000000476837","f","2","1","2","86","27","11","1","2","0","3"
"1729.7999999523163","k","3","0","0","87","27","17","0","2","1","3"
"1273.5999999642372","d","2","1","2","88","24","89","0","2","0","3"
"1303.5","f","4","1","1","89","54","4","0","2","0","3"
"1028.4000000357628","d","2","1","2","90","25","48","1","2","0","3"
"1609.9000000357628","d","2","1","2","91","25","14","1","2","1","3"
"1869.6000000238419","k","3","0","0","92","76","27","1","2","1","3"
"null","null","-1","0","-1","93","67","3","0","2","1","3"
"1698.6000000238419","f","2","1","2","94","32","62","1","2","0","3"
"1721","k","0","0","-1","95","69","75","1","2","0","3"
"1596.5","d","2","1","2","96","75","70","0","2","1","3"
"1104.199999988079","j","0","0","-1","97","60","30","1","2","1","3"
"1367.9000000357628","k","0","0","-1","98","29","25","0","2","0","3"
"1247.6000000238419","f","3","1","0","99","1","31","0","2","1","3"
"1665.4000000357628","j","3","0","0","100","56","4","0","2","0","3"
"1259.300000011921","f","4","1","1","101","34","90","0","2","1","3"
"1979.300000011921","k","3","0","0","102","20","61","1","2","1","3"
"1729.199999988079","k","3","0","0","103","8","10","0","2","1","3"
"null","null","-1","0","-1","104","24","38","1","2","0","3"
"1951.3999999761581","j","0","0","-1","105","11","6","0","3","1","3"
"1621.6000000238419","k","3","0","0","106","72","38","1","3","1","3"
"1348.1000000238419","f","2","1","2","107","62","51","0","3","0","3"
"1304.1000000238419","f","4","1","1","108","65","61","0","3","0","3"
"1321.300000011921","f","2","1","2","109","23","39","1","3","0","3"
"1619.800000011921","j","3","0","0","110","65","78","1","3","0","3"
"null","null","-1","1","-1","111","71","8","1","3","0","3"
"1636.1000000238419","f","2","1","2","112","78","38","1","3","1","3"
"1726.5","k","3","0","0","113","52","30","1","3","1","3"
"1920.1000000238419","j","3","0","0","114","43","41","0","3","0","3"
"1178.300000011921","f","2","1","2","115","7","57","1","3","0","3"
"1758.5999999642372","j","0","0","-1","116","17","6","1","3","1","3"
"1750.7999999523163","j","3","0","0","117","5","40","0","3","0","3"
"1214.699999988079","f","2","1","2","118","78","91","0","3","1","3"
"1385.3999999761581","j","0","0","-1","119","97","59","0","3","1","3"
"1208.2999999523163","f","2","1","2","120","40","78","0","3","0","3"
"1509.5","f","2","1","2","121","15","32","1","3","1","3"
"1786.1000000238419","k","3","0","0","122","76","78","0","3","1","3"
"857.5","k","3","0","0","123","79","1","1","3","1","3"
"1180.300000011921","f","2","1","2","124","66","33","0","3","0","3"
"null","null","-1","0","-1","125","53","50","1","4","0","3"
"1578.7000000476837","f","2","1","2","126","78","11","1","4","1","3"
"1168.5999999642372","f","2","1","2","127","14","11","1","4","0","3"
"null","null","-1","0","-1","128","95","25","1","4","0","3"
"958.6999999880791","f","2","1","2","129","90","75","0","4","1","3"
"1656.9000000357628","k","3","0","0","130","58","63","0","4","1","3"
"null","null","-1","1","-1","131","31","36","0","4","0","3"
"965.2999999523163","k","3","0","0","132","54","33","1","4","1","3"
"1230.2000000476837","f","3","1","0","133","65","60","1","4","1","3"
"1409.1000000238419","j","3","0","0","134","68","14","0","4","0","3"
"null","null","-1","0","-1","135","57","30","0","4","1","3"
"1045.5","f","2","1","2","136","28","2","0","4","0","3"
"1299.800000011921","f","3","1","0","137","57","77","1","4","0","3"
"null","null","-1","1","-1","138","14","94","1","4","1","3"
"1256.1000000238419","f","2","1","2","139","63","86","0","4","1","3"
"1226.199999988079","k","0","0","-1","140","9","23","0","4","0","3"
"1848.699999988079","j","3","0","0","141","51","73","1","4","0","3"
"null","null","-1","0","-1","142","52","26","0","4","1","3"
"1538.5","f","2","1","2","143","19","78","1","4","1","3"
"1649.199999988079","j","3","0","0","144","74","49","0","4","0","3"
"1116.300000011921","f","2","1","2","145","20","84","0","5","1","3"
"1088.800000011921","f","2","1","2","146","74","45","0","5","0","3"
"1467.699999988079","k","3","0","0","147","73","34","0","5","1","3"
"1759.199999988079","f","3","1","0","148","59","58","0","5","0","3"
"null","null","-1","0","-1","149","32","70","0","5","0","3"
"1224.8999999761581","j","3","0","0","150","58","64","1","5","0","3"
"1488.7000000476837","k","3","0","0","151","77","14","0","5","1","3"
"1908.0999999642372","j","3","0","0","152","32","94","1","5","0","3"
"1287.300000011921","j","3","0","0","153","38","15","1","5","0","3"
"1248.3999999761581","f","2","1","2","154","59","50","1","5","1","3"
"1229.1000000238419","f","2","1","2","155","99","82","0","5","1","3"
"1777.8999999761581","d","2","1","2","156","97","89","1","5","0","3"
"1644.6000000238419","j","3","0","0","157","78","94","0","5","0","3"
"null","null","-1","0","-1","158","41","15","0","5","1","3"
"967.2000000476837","f","3","1","0","159","32","75","1","5","1","3"
"1312.699999988079","f","4","1","1","160","97","92","1","5","1","3"
"1561.199999988079","k","3","0","0","161","27","71","1","5","1","3"
"1141.800000011921","f","3","1","0","162","11","78","1","5","1","3"
"1073.8999999761581","f","2","1","2","163","84","83","0","5","0","3"
"1748.4000000357628","j","3","0","0","164","5","94","1","5","0","3"
"1091.5999999642372","f","2","1","2","165","65","8","1","6","0","3"
"null","null","-1","0","-1","166","11","48","0","6","0","3"
"1651.7999999523163","k","3","0","0","167","75","95","0","6","1","3"
"1029.5","f","3","1","0","168","51","19","1","6","0","3"
"1508.2000000476837","k","3","0","0","169","60","58","1","6","1","3"
"null","null","-1","1","-1","170","83","11","1","6","1","3"
"1894.199999988079","d","2","1","2","171","59","77","0","6","1","3"
"1177.8999999761581","f","4","1","1","172","16","75","0","6","0","3"
"1159.2000000476837","f","2","1","2","173","35","47","0","6","0","3"
"1830.1000000238419","d","3","1","0","174","53","13","0","6","1","3"
"1548.1000000238419","k","3","0","0","175","76","71","0","6","1","3"
"1598.800000011921","j","3","0","0","176","24","37","0","6","0","3"
"1100.199999988079","f","2","1","2","177","79","86","0","6","0","3"
"null","null","-1","1","-1","178","30","24","1","6","1","3"
"1934.300000011921","k","3","0","0","179","44","94","0","6","1","3"
"1308.5","k","0","0","-1","180","39","18","1","6","0","3"
"1975.9000000357628","f","2","1","2","181","75","61","1","6","0","3"
"1416.5999999642372","j","3","0","0","182","61","44","1","6","0","3"
"1747.7000000476837","k","3","0","0","183","79","86","1","6","1","3"
"1947","k","3","0","0","184","64","65","1","6","1","3"
"1974.7000000476837","j","3","0","0","185","81","38","1","7","0","3"
"1300.800000011921","k","3","0","0","186","80","52","0","7","1","3"
"1718.300000011921","k","3","0","0","187","56","6","1","7","1","3"
"null","null","-1","0","-1","188","56","88","0","7","1","3"
"1429.699999988079","f","3","1","0","189","40","51","1","7","1","3"
"1397.5","d","3","1","0","190","78","92","0","7","0","3"
"1316.5","d","2","1","2","191","46","44","0","7","0","3"
"null","null","-1","1","-1","192","65","73","1","7","0","3"
"1366.0999999642372","f","4","1","1","193","72","57","0","7","0","3"
"1618","k","3","0","0","194","14","92","0","7","1","3"
"null","null","-1","1","-1","195","84","51","1","7","1","3"
"1523.8999999761581","k","0","0","-1","196","19","83","1","7","0","3"
"null","null","-1","1","-1","197","74","8","0","7","1","3"
"1610.699999988079","j","3","0","0","198","80","24","1","7","0","3"
"1087.699999988079","d","4","1","1","199","49","62","1","7","0","3"
"1508.2999999523163","k","3","0","0","200","4","74","1","7","1","3"
"null","null","-1","0","-1","201","5","39","0","7","0","3"
"1635.0999999642372","k","3","0","0","202","77","43","0","7","1","3"
"null","null","-1","1","-1","203","49","82","0","7","0","3"
"1570.800000011921","f","3","1","0","204","7","30","1","7","1","3"
"1167.2000000476837","f","2","1","2","205","66","12","0","8","0","3"
"1045.199999988079","f","4","1","1","206","93","15","1","8","1","3"
"null","null","-1","1","-1","207","38","24","1","8","0","3"
"1019.5999999642372","f","4","1","1","208","45","66","1","8","1","3"
"1633.0999999642372","k","3","0","0","209","79","20","0","8","1","3"
"1492.800000011921","j","3","0","0","210","62","44","0","8","0","3"
"1279.5","f","2","1","2","211","71","36","0","8","1","3"
"1368.8999999761581","k","0","0","-1","212","67","51","1","8","0","3"
"1386.800000011921","j","3","0","0","213","9","28","0","8","0","3"
"1349.5","k","0","0","-1","214","59","49","1","8","0","3"
"1410.199999988079","d","3","1","0","215","14","52","1","8","1","3"
"1577.5","k","3","0","0","216","95","98","1","8","1","3"
"1562.9000000357628","j","3","0","0","217","24","63","1","8","0","3"
"null","null","-1","0","-1","218","80","1","0","8","1","3"
"1341.5","f","2","1","2","219","78","18","0","8","1","3"
"1919.8999999761581","j","3","0","0","220","72","59","0","8","0","3"
"1285.199999988079","f","2","1","2","221","31","72","0","8","1","3"
"1140.199999988079","f","3","1","0","222","40","63","0","8","1","3"
"1746.7999999523163","k","0","0","-1","223","58","48","1","8","0","3"
"1308.1000000238419","d","2","1","2","224","55","21","1","8","0","3"
"1460","j","0","0","-1","225","2","0","0","9","1","3"
"1258.1000000238419","f","2","1","2","226","71","33","0","9","0","3"
"1716.699999988079","f","2","1","2","227","47","84","1","9","0","3"
"1376","j","3","0","0","228","53","37","0","9","0","3"
"1454.6000000238419","j","3","0","0","229","9","10","1","9","0","3"
"1087.7000000476837","f","2","1","2","230","80","12","1","9","1","3"
"1030.199999988079","f","2","1","2","231","47","16","0","9","0","3"
"1887","k","3","0","0","232","1","3","1","9","1","3"
"null","null","-1","0","-1","233","28","85","1","9","1","3"
"1244.300000011921","f","2","1","2","234","12","31","0","9","0","3"
"1518.1000000238419","k","3","0","0","235","28","73","1","9","1","3"
"1704","k","0","0","-1","236","10","50","0","9","0","3"
"1231.800000011921","d","3","1","0","237","54","28","0","9","0","3"
"1325.800000011921","f","3","1","0","238","31","21","1","9","1","3"
"1726.199999988079","j","3","0","0","239","63","72","0","9","0","3"
"null","null","-1","1","-1","240","62","36","1","9","0","3"
"1656.199999988079","f","2","1","2","241","74","66","0","9","1","3"
"null","null","-1","0","-1","242","96","0","1","9","1","3"
"null","null","-1","0","-1","243","72","32","1","9","1","3"
"null","null","-1","1","-1","244","55","45","0","9","1","3"
