"rt","key_press","reward","type","marble","trial_num","stim_1","stim_2","change_index","block","changed","marble_set"
"17651.60000000149","d","3","1","2","1","65","89","0","0","0","4"
"2392.699999999255","d","4","1","1","2","60","22","0","0","0","4"
"700.6999999992549","d","2","1","0","3","16","35","0","0","0","4"
"798.7000000029802","d","2","1","0","4","73","7","0","0","0","4"
"630.1999999992549","f","3","1","2","5","45","55","0","0","0","4"
"868.4000000022352","d","2","1","0","6","30","94","0","0","0","4"
"624.4000000022352","f","2","1","0","7","54","80","0","0","0","4"
"608.8000000007451","f","3","1","2","8","50","60","0","0","0","4"
"643.0999999977648","f","4","1","1","9","77","88","0","0","0","4"
"465.4000000022352","d","2","1","0","10","4","86","0","0","0","4"
"493.3999999985099","f","2","1","0","11","7","53","0","0","0","4"
"34.599999997764826","d","3","1","2","12","84","7","0","0","0","4"
"110.80000000074506","d","2","1","0","13","39","72","0","0","0","4"
"173","d","2","1","0","14","67","98","0","0","0","4"
"177","f","3","1","2","15","60","47","0","0","0","4"
"713.5","f","2","1","0","16","6","89","0","0","0","4"
"666.9000000022352","d","3","1","2","17","98","37","0","0","0","4"
"207.89999999850988","f","3","1","2","18","31","35","0","0","0","4"
"557.1999999992549","f","2","1","0","19","38","92","0","0","0","4"
"146.80000000074506","f","3","1","2","20","54","48","0","0","0","4"
"31135.10000000149","k","3","0","2","21","32","64","0","0","1","4"
"4792.89999999851","k","0","0","-1","22","72","57","1","0","0","4"
"2735.39999999851","k","3","0","2","23","71","11","0","0","1","4"
"2738.7999999970198","k","3","0","2","24","9","22","1","0","1","4"
"1259.699999999255","k","3","0","2","25","37","66","1","0","1","4"
"1640.3999999985099","k","0","0","-1","26","89","67","1","0","0","4"
"3088.300000000745","k","3","0","2","27","66","5","0","0","1","4"
"1089.3999999985099","k","3","0","2","28","53","22","1","0","1","4"
"5089.199999999255","k","0","0","-1","29","54","70","1","0","0","4"
"1379.5","k","0","0","-1","30","68","39","0","0","0","4"
"785.4000000022352","k","0","0","-1","31","31","96","0","0","0","4"
"1307.800000000745","j","0","0","-1","32","30","13","0","0","1","4"
"213.80000000074506","j","0","0","-1","33","4","54","0","0","1","4"
"1109","k","3","0","2","34","15","23","0","0","1","4"
"721.6000000014901","k","0","0","-1","35","93","11","1","0","0","4"
"979.3000000007451","k","0","0","-1","36","38","97","1","0","0","4"
"586.3999999985099","k","0","0","-1","37","34","37","0","0","0","4"
"633.8999999985099","k","3","0","2","38","72","59","0","0","1","4"
"867.8000000007451","k","0","0","-1","39","89","7","1","0","0","4"
"590","j","3","0","2","40","64","50","1","0","0","4"
"32310.89999999851","","","","","","","","","","",""
"4482.400000002235","","","","","","","","","","",""
"8293.099999997765","","","","","","","","","","",""
"4788.800000000745","","","","","","","","","","",""
"14788.599999997765","","","","","","","","","","",""
"3083.800000000745","","","","","","","","","","",""
"5500.5","","","","","","","","","","",""
"5155.5","","","","","","","","","","",""
"2516.199999999255","","","","","","","","","","",""
"2235.900000002235","","","","","","","","","","",""
"null","null","-1","1","-1","51","49","90","1","0","1","4"
"null","null","-1","0","-1","52","87","75","0","0","0","4"
"146.19999999925494","k","3","0","2","53","75","39","0","0","1","4"
"null","null","-1","1","-1","54","71","91","0","0","0","4"
"27.5","j","0","0","-1","55","93","12","1","0","1","4"
"null","null","-1","1","-1","56","90","41","0","0","1","4"
"1099.3999999985099","k","3","0","2","57","81","60","0","0","1","4"
"849.3000000007451","k","3","0","2","58","9","96","1","0","1","4"
"null","null","-1","1","-1","59","62","7","1","0","0","4"
"null","null","-1","1","-1","60","94","61","0","0","0","4"
"1075.5","k","0","0","-1","61","7","32","0","0","0","4"
"null","null","-1","1","-1","62","19","41","1","0","1","4"
"null","null","-1","1","-1","63","54","4","0","0","0","4"
"null","null","-1","1","-1","64","47","12","1","0","1","4"
"null","null","-1","1","-1","65","94","93","1","0","0","4"
"null","null","-1","0","-1","66","89","85","1","0","0","4"
"519.6999999992549","j","0","0","-1","67","39","98","1","0","1","4"
"1301.0999999977648","k","0","0","-1","68","71","67","0","0","0","4"
"1594.0999999977648","f","2","1","0","69","71","74","0","0","1","4"
"1090.800000000745","j","3","0","2","70","70","7","1","0","0","4"
"1038.5999999977648","f","2","1","0","71","66","28","0","1","0","4"
"null","null","-1","1","-1","72","52","20","0","1","0","4"
"1128.5","j","3","0","2","73","72","59","1","1","0","4"
"966.8999999985099","j","0","0","-1","74","76","25","0","1","1","4"
"1086.699999999255","k","3","0","2","75","73","4","1","1","1","4"
"1757.300000000745","f","2","1","0","76","29","83","0","1","0","4"
"1780.2000000029802","f","4","1","1","77","51","4","0","1","0","4"
"1243.199999999255","f","3","1","2","78","94","19","1","1","1","4"
"1095.699999999255","j","0","0","-1","79","47","33","0","1","1","4"
"1287.300000000745","f","2","1","0","80","74","37","1","1","0","4"
"1181.2999999970198","j","3","0","2","81","52","83","1","1","0","4"
"1825.6000000014901","f","2","1","0","82","21","89","1","1","1","4"
"1757.0999999977648","f","2","1","0","83","30","15","0","1","1","4"
"1328.699999999255","j","3","0","2","84","22","68","0","1","0","4"
"1012.8000000007451","j","3","0","2","85","29","5","1","1","0","4"
"984.7999999970198","j","3","0","2","86","36","44","0","1","0","4"
"1869.9000000022352","f","4","1","1","87","83","94","1","1","1","4"
"1363.5","j","0","0","-1","88","94","1","1","1","1","4"
"1243.4000000022352","f","2","1","0","89","78","97","0","1","1","4"
"1382.3999999985099","j","0","0","-1","90","28","78","1","1","1","4"
"938.3000000007451","j","3","0","2","91","13","97","0","2","0","4"
"948.3999999985099","j","3","0","2","92","32","83","0","2","0","4"
"816.3000000007451","j","3","0","2","93","80","87","1","2","0","4"
"977.5","j","3","0","2","94","17","94","1","2","0","4"
"898.8999999985099","k","0","0","-1","95","17","40","1","2","0","4"
"1042.1000000014901","f","2","1","0","96","43","39","0","2","1","4"
"1906.300000000745","f","2","1","0","97","20","58","0","2","1","4"
"975.8999999985099","j","0","0","-1","98","50","65","1","2","1","4"
"1502.5","f","2","1","0","99","35","82","1","2","0","4"
"829.1999999992549","f","4","1","1","100","98","46","0","2","1","4"
"1914.800000000745","f","2","1","0","101","8","68","0","2","1","4"
"1476.800000000745","j","0","0","-1","102","99","47","0","2","1","4"
"null","null","-1","1","-1","103","62","46","1","2","0","4"
"1082.300000000745","f","2","1","0","104","40","76","0","2","0","4"
"1468.300000000745","f","2","1","0","105","69","75","1","2","1","4"
"648.1999999992549","j","0","0","-1","106","16","64","1","2","1","4"
"943.5999999977648","k","3","0","2","107","81","37","1","2","1","4"
"849.1999999992549","j","3","0","2","108","34","67","1","2","0","4"
"1250.2999999970198","f","2","1","0","109","72","2","0","2","1","4"
"1833","f","3","1","2","110","82","15","0","2","0","4"
"null","null","-1","1","-1","111","61","9","1","3","1","4"
"1309.699999999255","f","2","1","0","112","49","15","0","3","1","4"
"983.7000000029802","f","4","1","1","113","99","90","1","3","1","4"
"1139.3999999985099","j","3","0","2","114","65","45","0","3","0","4"
"1019.0999999977648","d","3","1","2","115","44","60","0","3","1","4"
"null","null","-1","1","-1","116","85","1","1","3","1","4"
"1021.6000000014901","j","3","0","2","117","88","82","0","3","0","4"
"1728.199999999255","j","3","0","2","118","22","71","1","3","0","4"
"915.9000000022352","j","0","0","-1","119","92","39","0","3","1","4"
"928","j","3","0","2","120","6","3","0","3","0","4"
"null","null","-1","1","-1","121","94","20","0","3","0","4"
"1384.300000000745","f","2","1","0","122","36","98","0","3","0","4"
"1190.8999999985099","j","3","0","2","123","80","78","1","3","0","4"
"860.3000000007451","f","2","1","0","124","8","39","1","3","0","4"
"959.1000000014901","j","0","0","-1","125","38","41","1","3","1","4"
"1122.8999999985099","k","3","0","2","126","1","0","0","3","1","4"
"711.8000000007451","k","0","0","-1","127","91","80","1","3","0","4"
"988.8999999985099","d","2","1","0","128","37","33","1","3","1","4"
"1036.8999999985099","j","3","0","2","129","91","60","0","3","0","4"
"888.8999999985099","f","3","1","2","130","43","61","1","3","1","4"
"1430.5999999977648","f","3","1","2","131","72","28","0","4","0","4"
"1146.800000000745","f","2","1","0","132","1","61","1","4","1","4"
"958.5","j","3","0","2","133","59","82","0","4","0","4"
"1303","f","2","1","0","134","76","0","0","4","1","4"
"874.0999999977648","j","0","0","-1","135","53","12","0","4","1","4"
"859.3999999985099","j","3","0","2","136","16","42","0","4","0","4"
"918.2999999970198","j","3","0","2","137","78","75","0","4","0","4"
"895.8000000007451","j","3","0","2","138","34","32","1","4","0","4"
"1345.3999999985099","f","2","1","0","139","48","80","1","4","0","4"
"1209.1000000014901","f","2","1","0","140","12","85","1","4","0","4"
"902","j","3","0","2","141","42","12","1","4","0","4"
"948","f","2","1","0","142","48","58","1","4","1","4"
"1408.3999999985099","f","2","1","0","143","63","37","1","4","0","4"
"795.8000000007451","j","0","0","-1","144","21","34","1","4","1","4"
"896.5999999977648","j","3","0","2","145","55","20","1","4","0","4"
"1414.199999999255","f","3","1","2","146","78","62","0","4","1","4"
"1042.199999999255","f","2","1","0","147","24","0","0","4","1","4"
"766.6000000014901","j","0","0","-1","148","75","54","1","4","1","4"
"1546.6000000014901","f","2","1","0","149","36","6","0","4","1","4"
"731.6000000014901","j","0","0","-1","150","57","0","0","4","1","4"
"1315.800000000745","k","3","0","2","151","53","33","1","5","1","4"
"771.8000000007451","k","0","0","-1","152","44","77","1","5","0","4"
"900.6999999992549","k","3","0","2","153","29","84","1","5","1","4"
"952.4000000022352","j","0","0","-1","154","93","58","0","5","1","4"
"1176","f","4","1","1","155","87","90","1","5","0","4"
"1147.9000000022352","f","2","1","0","156","51","77","0","5","1","4"
"1466.7000000029802","f","3","1","2","157","14","58","1","5","0","4"
"1033.9000000022352","f","2","1","0","158","90","4","0","5","1","4"
"1091.2000000029802","j","0","0","-1","159","69","15","1","5","1","4"
"1436.5999999977648","f","2","1","0","160","42","84","1","5","1","4"
"1387.800000000745","d","4","1","1","161","95","86","1","5","0","4"
"1205","j","3","0","2","162","62","12","0","5","0","4"
"1279.300000000745","f","2","1","0","163","3","11","1","5","1","4"
"1024.0999999977648","k","0","0","-1","164","46","53","0","5","0","4"
"1251.800000000745","f","2","1","0","165","96","6","1","5","0","4"
"1104.5","f","4","1","1","166","75","12","0","5","0","4"
"1484.1000000014901","f","3","1","2","167","80","53","0","5","1","4"
"1395.5999999977648","j","3","0","2","168","77","6","0","5","0","4"
"893.1000000014901","j","0","0","-1","169","79","18","0","5","1","4"
"949.3999999985099","k","0","0","-1","170","35","86","0","5","0","4"
"1455.9000000022352","k","0","0","-1","171","7","96","0","6","0","4"
"1392.800000000745","f","3","1","2","172","97","2","0","6","1","4"
"863.7999999970198","k","0","0","-1","173","31","71","0","6","0","4"
"1045","k","3","0","2","174","45","71","0","6","1","4"
"762.2000000029802","k","3","0","2","175","93","33","1","6","1","4"
"1423","f","3","1","2","176","95","61","1","6","0","4"
"1300.5999999977648","f","2","1","0","177","20","87","0","6","0","4"
"1362.6000000014901","f","2","1","0","178","86","36","1","6","0","4"
"1603.300000000745","f","2","1","0","179","57","40","1","6","0","4"
"1459.2999999970198","f","3","1","2","180","76","80","0","6","1","4"
"1365.300000000745","f","3","1","2","181","44","72","0","6","1","4"
"1125.5","f","3","1","2","182","67","21","0","6","1","4"
"1019","f","2","1","0","183","41","90","0","6","0","4"
"1158.3999999985099","f","2","1","0","184","78","16","0","6","1","4"
"1522.5","k","0","0","-1","185","67","52","1","6","0","4"
"862.9000000022352","j","0","0","-1","186","1","64","1","6","1","4"
"891.0999999977648","k","3","0","2","187","58","18","1","6","1","4"
"1011.0999999977648","k","0","0","-1","188","19","54","1","6","0","4"
"1095.8999999985099","k","0","0","-1","189","17","78","1","6","0","4"
"862.7000000029802","j","0","0","-1","190","33","7","1","6","1","4"
"null","null","-1","1","-1","191","83","62","1","7","0","4"
"752.8000000007451","k","3","0","2","192","12","42","0","7","1","4"
"1302.2000000029802","f","2","1","0","193","30","90","0","7","0","4"
"1563.699999999255","f","2","1","0","194","34","41","1","7","0","4"
"1063.6000000014901","k","0","0","-1","195","1","72","0","7","0","4"
"1381.199999999255","f","2","1","0","196","33","2","0","7","1","4"
"1271.0999999977648","k","3","0","2","197","42","50","1","7","1","4"
"815.9000000022352","k","0","0","-1","198","29","21","0","7","0","4"
"1403.699999999255","j","3","0","2","199","15","83","0","7","0","4"
"1385.699999999255","f","2","1","0","200","5","84","0","7","1","4"
"1390.6000000014901","d","2","1","0","201","22","55","1","7","1","4"
"1450.3999999985099","f","3","1","2","202","69","72","0","7","1","4"
"788.6999999992549","j","0","0","-1","203","85","97","1","7","1","4"
"1029.5","k","3","0","2","204","3","34","1","7","1","4"
"862.1999999992549","k","0","0","-1","205","29","60","0","7","0","4"
"704.0999999977648","j","0","0","-1","206","30","28","1","7","1","4"
"1335.4000000022352","f","3","1","2","207","12","36","1","7","1","4"
"1498.800000000745","f","2","1","0","208","31","97","1","7","0","4"
"1079.5","j","3","0","2","209","45","35","0","7","0","4"
"1609.300000000745","f","2","1","0","210","37","12","1","7","0","4"
"884","k","3","0","2","211","64","78","0","8","1","4"
"1076.0999999977648","f","4","1","1","212","96","30","1","8","1","4"
"1487.199999999255","f","2","1","0","213","52","51","0","8","1","4"
"1071.9000000022352","f","2","1","0","214","65","62","1","8","0","4"
"1244","f","4","1","1","215","22","64","0","8","1","4"
"1435.300000000745","f","3","1","2","216","92","83","0","8","0","4"
"null","null","-1","0","-1","217","18","33","1","8","0","4"
"1306.4000000022352","j","3","0","2","218","48","36","0","8","0","4"
"1345.199999999255","f","2","1","0","219","81","86","1","8","0","4"
"891.8000000007451","j","0","0","-1","220","41","70","0","8","1","4"
"854.8999999985099","k","3","0","2","221","72","36","0","8","1","4"
"1190.199999999255","f","3","1","2","222","59","97","0","8","0","4"
"1116.7999999970198","f","3","1","2","223","54","52","1","8","1","4"
"780.7999999970198","j","3","0","2","224","11","49","0","8","0","4"
"1325.0999999977648","f","2","1","0","225","66","60","1","8","0","4"
"1005","j","3","0","2","226","35","79","1","8","0","4"
"1609.199999999255","f","2","1","0","227","19","47","1","8","0","4"
"849.1999999992549","j","0","0","-1","228","91","11","1","8","1","4"
"992.6999999992549","k","3","0","2","229","7","40","1","8","1","4"
"1587.300000000745","k","3","0","2","230","22","91","0","8","1","4"
"null","null","-1","0","-1","231","5","69","0","9","0","4"
"790.3000000007451","j","0","0","-1","232","15","36","1","9","1","4"
"817.5","k","3","0","2","233","30","5","1","9","1","4"
"1194.300000000745","d","4","1","1","234","90","23","1","9","1","4"
"1111.300000000745","d","2","1","0","235","42","35","1","9","0","4"
"1139.300000000745","d","4","1","1","236","34","81","1","9","1","4"
"797.1999999992549","j","3","0","2","237","5","87","0","9","0","4"
"1328.9000000022352","d","2","1","0","238","81","12","0","9","0","4"
"1114","d","3","1","2","239","4","50","0","9","1","4"
"891.6000000014901","k","0","0","-1","240","80","79","0","9","0","4"
"1359.3999999985099","d","2","1","0","241","38","48","0","9","0","4"
"1139.199999999255","d","3","1","2","242","51","75","1","9","0","4"
"1199.699999999255","d","3","1","2","243","26","22","0","9","0","4"
"911.5","d","4","1","1","244","87","94","1","9","1","4"
"1179.3999999985099","d","3","1","2","245","72","62","0","9","1","4"
"1002.6000000014901","k","3","0","2","246","78","29","1","9","1","4"
"794.4000000022352","k","3","0","2","247","49","33","1","9","1","4"
"783.1000000014901","k","0","0","-1","248","60","19","0","9","0","4"
"738.7999999970198","k","0","0","-1","249","18","74","0","9","0","4"
"866.5","j","0","0","-1","250","43","68","1","9","1","4"
