"rt","key_press","reward","type","marble","trial_num","stim_1","stim_2","change_index","block","changed","marble_set"
"3436.5999994277954","d","3","1","1","1","1","67","0","0","0","0"
"1253.2999992370605","f","2","1","2","2","27","76","0","0","0","0"
"11575.89999961853","d","2","1","2","3","23","52","0","0","0","0"
"4508","d","3","1","1","4","12","49","0","0","0","0"
"1808.8000001907349","f","3","1","1","5","24","58","0","0","0","0"
"4374.5","d","3","1","1","6","12","17","0","0","0","0"
"8034.699999809265","d","2","1","2","7","79","19","0","0","0","0"
"3222.4000005722046","d","2","1","2","8","27","85","0","0","0","0"
"4170.800000190735","d","2","1","2","9","74","69","0","0","0","0"
"1422.9000005722046","d","3","1","1","10","95","80","0","0","0","0"
"4035.800000190735","d","3","1","1","11","1","43","0","0","0","0"
"8465.89999961853","d","3","1","1","12","17","79","0","0","0","0"
"985.5","f","3","1","1","13","29","81","0","0","0","0"
"1847.5999994277954","d","2","1","2","14","60","96","0","0","0","0"
"4984","d","2","1","2","15","93","42","0","0","0","0"
"6059.199999809265","d","4","1","0","16","32","19","0","0","0","0"
"6381.60000038147","f","3","1","1","17","87","58","0","0","0","0"
"9385.900000572205","d","2","1","2","18","46","35","0","0","0","0"
"3734.9000005722046","f","3","1","1","19","74","67","0","0","0","0"
"5573.300000190735","f","2","1","2","20","21","57","0","0","0","0"
"3523.199999809265","k","3","0","1","21","22","69","0","0","1","0"
"3002.6000003814697","k","3","0","1","22","83","9","1","0","1","0"
"1892.8000001907349","k","0","0","-1","23","81","79","0","0","0","0"
"1728.2999992370605","k","0","0","-1","24","81","7","0","0","0","0"
"1206.1999998092651","k","3","0","1","25","46","12","1","0","1","0"
"1165.5999994277954","k","0","0","-1","26","21","38","1","0","0","0"
"7750.400000572205","k","0","0","-1","27","79","93","0","0","0","0"
"16570.60000038147","k","0","0","-1","28","90","76","0","0","0","0"
"6383.900000572205","k","0","0","-1","29","14","72","1","0","0","0"
"18160.699999809265","k","3","0","1","30","15","1","0","0","1","0"
"1143.5999994277954","k","0","0","-1","31","47","87","1","0","0","0"
"1155.1999998092651","k","3","0","1","32","79","31","0","0","1","0"
"3548","k","0","0","-1","33","42","27","0","0","0","0"
"981.8999996185303","j","0","0","-1","34","45","29","0","0","1","0"
"731.9000005722046","k","3","0","1","35","62","31","0","0","1","0"
"1551.5","j","0","0","-1","36","87","2","1","0","1","0"
"786.4000005722046","k","0","0","-1","37","73","95","1","0","0","0"
"868.6000003814697","j","3","0","1","38","32","59","1","0","0","0"
"574.6000003814697","j","0","0","-1","39","96","71","0","0","1","0"
"660.0999994277954","k","0","0","-1","40","45","28","1","0","0","0"
"9467.199999809265","","","","","","","","","","",""
"4533.300000190735","","","","","","","","","","",""
"4485.799999237061","","","","","","","","","","",""
"2087.5999994277954","","","","","","","","","","",""
"2605.699999809265","","","","","","","","","","",""
"3418.4000005722046","","","","","","","","","","",""
"2287.699999809265","","","","","","","","","","",""
"1862.5999994277954","","","","","","","","","","",""
"3362","","","","","","","","","","",""
"3852.2999992370605","","","","","","","","","","",""
"11535.60000038147","","","","","","","","","","",""
"3474.9000005722046","","","","","","","","","","",""
"6717.89999961853","","","","","","","","","","",""
"3175.199999809265","","","","","","","","","","",""
"null","null","-1","0","-1","55","91","20","0","0","1","0"
"null","null","-1","1","-1","56","23","60","1","0","0","0"
"1958.1999998092651","k","0","0","-1","57","63","22","1","0","0","0"
"null","null","-1","0","-1","58","18","58","0","0","1","0"
"1780.8000001907349","k","3","0","1","59","9","31","1","0","1","0"
"null","null","-1","1","-1","60","40","88","0","0","0","0"
"null","null","-1","0","-1","61","7","60","1","0","0","0"
"null","null","-1","1","-1","62","50","13","0","0","0","0"
"null","null","-1","1","-1","63","35","13","1","0","1","0"
"null","null","-1","1","-1","64","90","19","0","0","1","0"
"null","null","-1","0","-1","65","40","25","1","0","0","0"
"null","null","-1","1","-1","66","24","15","1","0","0","0"
"null","null","-1","1","-1","67","29","56","1","0","0","0"
"null","null","-1","0","-1","68","58","51","1","0","1","0"
"null","null","-1","0","-1","69","73","17","0","0","0","0"
"null","null","-1","1","-1","70","87","72","0","0","1","0"
"null","null","-1","1","-1","71","10","15","0","0","0","0"
"null","null","-1","0","-1","72","62","45","1","0","1","0"
"null","null","-1","0","-1","73","10","84","0","0","1","0"
"null","null","-1","1","-1","74","66","68","0","0","1","0"
"null","null","-1","1","-1","75","84","80","1","1","0","0"
"52.80000019073486","d","3","1","1","76","16","29","0","1","1","0"
"null","null","-1","0","-1","77","19","8","0","1","0","0"
"null","null","-1","0","-1","78","32","79","0","1","1","0"
"null","null","-1","0","-1","79","71","72","1","1","0","0"
"1672.6000003814697","k","0","0","-1","80","10","81","1","1","0","0"
"1708","d","3","1","1","81","20","81","1","1","1","0"
"1839.6999998092651","k","0","0","-1","82","67","90","1","1","0","0"
"62.80000019073486","f","4","1","0","83","46","38","0","1","1","0"
"null","null","-1","0","-1","84","68","47","0","1","0","0"
"null","null","-1","1","-1","85","46","36","0","1","1","0"
"690","f","4","1","0","86","86","76","1","1","1","0"
"1821.2999992370605","k","0","0","-1","87","70","39","0","1","0","0"
"1540.6000003814697","d","3","1","1","88","54","39","0","1","0","0"
"1572.7999992370605","k","0","0","-1","89","51","9","1","1","0","0"
"356","f","2","1","2","90","91","5","1","1","1","0"
"883.7999992370605","d","3","1","1","91","54","32","1","1","0","0"
"null","null","-1","0","-1","92","83","84","0","1","1","0"
"null","null","-1","0","-1","93","10","68","1","1","1","0"
"null","null","-1","1","-1","94","15","20","0","1","1","0"
"1989.3000001907349","k","0","0","-1","95","82","35","1","2","0","0"
"null","null","-1","1","-1","96","38","9","1","2","0","0"
"1374.3000001907349","d","4","1","0","97","14","12","0","2","0","0"
"null","null","-1","0","-1","98","51","86","0","2","0","0"
"null","null","-1","1","-1","99","15","8","0","2","1","0"
"null","null","-1","0","-1","100","23","98","0","2","1","0"
"null","null","-1","1","-1","101","66","8","1","2","1","0"
"null","null","-1","1","-1","102","99","4","0","2","1","0"
"null","null","-1","0","-1","103","1","84","0","2","0","0"
"null","null","-1","0","-1","104","52","88","1","2","0","0"
"null","null","-1","0","-1","105","31","70","0","2","0","0"
"null","null","-1","0","-1","106","65","8","1","2","1","0"
"null","null","-1","1","-1","107","70","95","1","2","0","0"
"null","null","-1","0","-1","108","32","87","0","2","1","0"
"null","null","-1","1","-1","109","48","16","0","2","1","0"
"null","null","-1","1","-1","110","17","9","1","2","1","0"
"null","null","-1","0","-1","111","49","12","1","2","0","0"
"null","null","-1","0","-1","112","76","1","1","2","0","0"
"null","null","-1","1","-1","113","89","19","0","2","1","0"
"null","null","-1","1","-1","114","97","51","1","2","1","0"
"null","null","-1","0","-1","115","73","36","0","3","1","0"
"null","null","-1","1","-1","116","58","6","0","3","1","0"
"null","null","-1","1","-1","117","74","93","0","3","1","0"
"null","null","-1","0","-1","118","92","1","1","3","1","0"
"null","null","-1","0","-1","119","6","61","1","3","0","0"
"null","null","-1","1","-1","120","98","8","0","3","1","0"
"null","null","-1","0","-1","121","99","63","0","3","0","0"
"1954.1000003814697","k","3","0","1","122","5","33","1","3","1","0"
"null","null","-1","1","-1","123","9","20","1","3","0","0"
"null","null","-1","0","-1","124","51","23","0","3","0","0"
"null","null","-1","0","-1","125","66","49","1","3","1","0"
"null","null","-1","1","-1","126","2","20","0","3","0","0"
"null","null","-1","1","-1","127","5","27","0","3","0","0"
"null","null","-1","1","-1","128","97","80","0","3","0","0"
"null","null","-1","0","-1","129","63","9","0","3","0","0"
"null","null","-1","1","-1","130","70","46","1","3","1","0"
"null","null","-1","0","-1","131","21","92","1","3","0","0"
"null","null","-1","1","-1","132","74","87","1","3","1","0"
"null","null","-1","1","-1","133","82","28","1","3","0","0"
"null","null","-1","0","-1","134","57","78","1","3","1","0"
"null","null","-1","0","-1","135","22","67","1","4","1","0"
"null","null","-1","0","-1","136","89","28","1","4","0","0"
"1953.0999994277954","d","3","1","1","137","89","48","0","4","1","0"
"null","null","-1","0","-1","138","38","87","1","4","0","0"
"1210.5","d","4","1","0","139","99","48","0","4","1","0"
"977.5","f","2","1","2","140","66","2","0","4","0","0"
"null","null","-1","0","-1","141","60","7","1","4","1","0"
"null","null","-1","1","-1","142","70","30","1","4","0","0"
"1967.7000007629395","k","3","0","1","143","85","86","0","4","1","0"
"null","null","-1","1","-1","144","84","91","1","4","1","0"
"null","null","-1","0","-1","145","85","38","1","4","0","0"
"null","null","-1","0","-1","146","40","84","1","4","0","0"
"null","null","-1","0","-1","147","3","63","0","4","0","0"
"null","null","-1","1","-1","148","17","38","0","4","1","0"
"907.7999992370605","f","4","1","0","149","6","19","1","4","1","0"
"null","null","-1","0","-1","150","13","72","0","4","1","0"
"1663.8999996185303","d","2","1","2","151","54","46","1","4","0","0"
"null","null","-1","1","-1","152","44","38","0","4","0","0"
"1379.5","f","2","1","2","153","19","87","0","4","1","0"
"null","null","-1","0","-1","154","73","8","0","4","0","0"
"null","null","-1","1","-1","155","78","40","0","5","0","0"
"null","null","-1","0","-1","156","81","60","1","5","0","0"
"null","null","-1","1","-1","157","36","2","1","5","1","0"
"1448.8999996185303","d","2","1","2","158","26","50","0","5","1","0"
"null","null","-1","1","-1","159","75","94","1","5","1","0"
"null","null","-1","1","-1","160","79","94","1","5","0","0"
"null","null","-1","0","-1","161","34","25","0","5","0","0"
"null","null","-1","0","-1","162","6","63","0","5","1","0"
"994.6999998092651","f","2","1","2","163","19","31","0","5","1","0"
"894.2000007629395","f","4","1","0","164","47","40","0","5","0","0"
"null","null","-1","0","-1","165","76","23","0","5","0","0"
"null","null","-1","0","-1","166","33","71","0","5","1","0"
"null","null","-1","0","-1","167","50","24","1","5","1","0"
"null","null","-1","0","-1","168","43","85","0","5","1","0"
"null","null","-1","1","-1","169","45","97","1","5","0","0"
"1406.3000001907349","f","2","1","2","170","10","44","1","5","0","0"
"1632.6000003814697","k","0","0","-1","171","77","40","1","5","0","0"
"1524.5999994277954","k","3","0","1","172","25","28","0","5","1","0"
"1402.2999992370605","f","4","1","0","173","65","57","1","5","0","0"
"null","null","-1","0","-1","174","39","29","1","5","1","0"
"null","null","-1","1","-1","175","8","96","0","6","0","0"
"1490.9000005722046","k","0","0","-1","176","21","77","1","6","0","0"
"null","null","-1","1","-1","177","1","29","1","6","0","0"
"900.5","d","3","1","1","178","65","41","1","6","0","0"
"1656.5","k","0","0","-1","179","45","97","1","6","0","0"
"null","null","-1","0","-1","180","94","57","0","6","1","0"
"null","null","-1","1","-1","181","12","66","0","6","0","0"
"null","null","-1","0","-1","182","2","1","0","6","0","0"
"1433.8000001907349","k","0","0","-1","183","86","11","1","6","0","0"
"null","null","-1","1","-1","184","97","95","0","6","0","0"
"null","null","-1","1","-1","185","16","0","0","6","1","0"
"1472.8999996185303","f","2","1","2","186","73","56","1","6","1","0"
"null","null","-1","0","-1","187","58","42","0","6","0","0"
"1383.1000003814697","f","2","1","2","188","52","0","1","6","1","0"
"null","null","-1","1","-1","189","33","43","0","6","1","0"
"null","null","-1","1","-1","190","14","60","1","6","1","0"
"null","null","-1","0","-1","191","41","76","1","6","1","0"
"null","null","-1","0","-1","192","72","57","1","6","1","0"
"null","null","-1","0","-1","193","76","51","0","6","1","0"
"null","null","-1","0","-1","194","44","82","0","6","1","0"
"null","null","-1","1","-1","195","94","81","0","7","1","0"
"1464.8000001907349","k","0","0","-1","196","58","75","0","7","0","0"
"1275.8999996185303","f","4","1","0","197","24","1","0","7","0","0"
"1609.6000003814697","k","3","0","1","198","81","89","1","7","1","0"
"1210.5","f","3","1","1","199","99","88","1","7","0","0"
"1185.5999994277954","d","4","1","0","200","52","37","1","7","1","0"
"1019.6999998092651","d","3","1","1","201","70","5","0","7","0","0"
"null","null","-1","0","-1","202","20","56","0","7","1","0"
"1916.3999996185303","k","3","0","1","203","47","14","0","7","1","0"
"null","null","-1","0","-1","204","37","29","1","7","0","0"
"null","null","-1","0","-1","205","44","90","1","7","1","0"
"795.9000005722046","d","3","1","1","206","58","39","0","7","0","0"
"1544.5999994277954","k","0","0","-1","207","16","9","0","7","0","0"
"1293","k","3","0","1","208","31","36","0","7","1","0"
"920.3999996185303","d","2","1","2","209","96","38","0","7","1","0"
"1687.6000003814697","k","3","0","1","210","39","21","1","7","1","0"
"1653.7000007629395","f","2","1","2","211","95","24","1","7","0","0"
"398.3999996185303","f","2","1","2","212","80","35","1","7","0","0"
"null","null","-1","1","-1","213","60","70","1","7","1","0"
"null","null","-1","0","-1","214","66","40","1","7","0","0"
"null","null","-1","0","-1","215","31","23","1","8","1","0"
"null","null","-1","0","-1","216","62","22","1","8","1","0"
"1717.1999998092651","f","3","1","1","217","68","93","0","8","0","0"
"null","null","-1","1","-1","218","49","32","1","8","0","0"
"null","null","-1","0","-1","219","11","50","1","8","0","0"
"803.4000005722046","f","2","1","2","220","64","30","1","8","0","0"
"478.6000003814697","d","2","1","2","221","54","88","1","8","1","0"
"671.3000001907349","d","2","1","2","222","41","1","0","8","0","0"
"null","null","-1","1","-1","223","47","36","0","8","1","0"
"null","null","-1","1","-1","224","38","30","0","8","1","0"
"1977.1999998092651","d","3","1","1","225","8","79","0","8","1","0"
"1438.5","k","3","0","1","226","79","6","0","8","1","0"
"null","null","-1","0","-1","227","55","26","0","8","0","0"
"null","null","-1","0","-1","228","36","63","1","8","1","0"
"null","null","-1","0","-1","229","59","98","0","8","0","0"
"1872.3000001907349","k","0","0","-1","230","29","54","1","8","0","0"
"null","null","-1","1","-1","231","37","19","0","8","0","0"
"null","null","-1","1","-1","232","50","1","1","8","1","0"
"null","null","-1","0","-1","233","73","59","0","8","0","0"
"null","null","-1","0","-1","234","15","61","1","8","1","0"
"null","null","-1","0","-1","235","3","53","0","9","1","0"
"223.89999961853027","d","2","1","2","236","69","50","1","9","1","0"
"null","null","-1","1","-1","237","17","24","0","9","0","0"
"1664.8000001907349","k","0","0","-1","238","82","66","1","9","0","0"
"12.5","f","2","1","2","239","95","13","0","9","0","0"
"1385","j","3","0","1","240","5","72","0","9","0","0"
"236.19999980926514","f","2","1","2","241","59","22","1","9","0","0"
"null","null","-1","0","-1","242","97","37","1","9","1","0"
"null","null","-1","0","-1","243","62","78","0","9","1","0"
"8.399999618530273","f","4","1","0","244","70","39","1","9","1","0"
"null","null","-1","1","-1","245","59","41","1","9","0","0"
"null","null","-1","0","-1","246","25","59","1","9","1","0"
"null","null","-1","0","-1","247","3","30","0","9","0","0"
"null","null","-1","1","-1","248","3","45","1","9","0","0"
"null","null","-1","1","-1","249","16","44","0","9","1","0"
"57.30000019073486","f","4","1","0","250","27","77","1","9","0","0"
"null","null","-1","0","-1","251","75","36","0","9","0","0"
"638.2999992370605","f","4","1","0","252","33","70","0","9","1","0"
"null","null","-1","0","-1","253","34","5","1","9","1","0"
"null","null","-1","0","-1","254","58","70","0","9","1","0"
