"rt","key_press","reward","type","marble","trial_num","stim_1","stim_2","change_index","block","changed","marble_set"
"5995","d","4","1","1","1","85","89","0","0","0","3"
"2510","d","2","1","2","2","38","55","0","0","0","3"
"666","f","2","1","2","3","22","64","0","0","0","3"
"815","d","2","1","2","4","91","62","0","0","0","3"
"789","f","2","1","2","5","80","73","0","0","0","3"
"992","d","2","1","2","6","35","55","0","0","0","3"
"857","f","2","1","2","7","37","39","0","0","0","3"
"246","f","3","1","0","8","13","58","0","0","0","3"
"1055","f","2","1","2","9","16","27","0","0","0","3"
"633","d","2","1","2","10","38","85","0","0","0","3"
"791","f","3","1","0","11","27","43","0","0","0","3"
"991","f","4","1","1","12","4","7","0","0","0","3"
"575","d","2","1","2","13","22","28","0","0","0","3"
"688","d","3","1","0","14","57","25","0","0","0","3"
"607","d","4","1","1","15","79","12","0","0","0","3"
"583","f","2","1","2","16","66","50","0","0","0","3"
"755","f","2","1","2","17","70","19","0","0","0","3"
"1213","d","2","1","2","18","39","14","0","0","0","3"
"900","d","3","1","0","19","94","28","0","0","0","3"
"771","d","2","1","2","20","95","72","0","0","0","3"
"1996","j","0","0","-1","21","74","83","0","0","1","3"
"1853","k","0","0","-1","22","4","24","1","0","0","3"
"1289","j","3","0","0","23","88","22","1","0","0","3"
"609","k","3","0","0","24","23","77","0","0","1","3"
"638","k","3","0","0","25","73","82","0","0","1","3"
"824","j","0","0","-1","26","4","31","1","0","1","3"
"620","j","0","0","-1","27","95","79","1","0","1","3"
"719","k","3","0","0","28","26","42","1","0","1","3"
"1053","j","0","0","-1","29","96","0","0","0","1","3"
"2215","k","0","0","-1","30","42","32","1","0","0","3"
"1105","j","3","0","0","31","41","37","0","0","0","3"
"1393","j","0","0","-1","32","62","15","0","0","1","3"
"780","k","0","0","-1","33","97","95","1","0","0","3"
"579","j","0","0","-1","34","6","8","0","0","1","3"
"936","k","0","0","-1","35","22","41","1","0","0","3"
"1465","j","3","0","0","36","88","96","0","0","0","3"
"954","j","3","0","0","37","65","30","1","0","0","3"
"725","j","3","0","0","38","31","9","0","0","0","3"
"859","j","0","0","-1","39","50","21","1","0","1","3"
"416","k","0","0","-1","40","57","75","0","0","0","3"
"11347","","","","","","","","","","",""
"26390","","","","","","","","","","",""
"5174","","","","","","","","","","",""
"null","null","-1","0","-1","44","7","79","1","0","0","3"
"null","null","-1","1","-1","45","47","95","0","0","1","3"
"1728","d","3","1","0","46","5","51","0","0","1","3"
"915","f","2","1","2","47","7","76","1","0","0","3"
"null","null","-1","0","-1","48","4","7","1","0","0","3"
"1496","k","3","0","0","49","83","44","0","0","1","3"
"1751","f","3","1","0","50","2","93","0","0","0","3"
"2029","d","2","1","2","51","84","32","0","0","0","3"
"1731","f","2","1","2","52","24","16","0","0","0","3"
"1357","k","3","0","0","53","4","59","1","0","1","3"
"1367","k","0","0","-1","54","35","50","1","0","0","3"
"1626","f","3","1","0","55","45","41","0","0","1","3"
"1090","k","3","0","0","56","44","51","1","0","1","3"
"1203","f","2","1","2","57","24","60","1","0","0","3"
"1417","k","3","0","0","58","55","60","0","0","1","3"
"1599","f","2","1","2","59","27","10","0","0","1","3"
"1086","k","3","0","0","60","34","24","1","0","1","3"
"1065","f","4","1","1","61","23","65","0","0","0","3"
"1811","j","0","0","-1","62","50","75","1","0","1","3"
"1048","k","0","0","-1","63","5","87","1","0","0","3"
"1542","f","2","1","2","64","80","22","1","1","0","3"
"1788","f","3","1","0","65","86","89","0","1","1","3"
"1450","k","0","0","-1","66","43","76","1","1","0","3"
"2039","j","3","0","0","67","99","84","0","1","0","3"
"1282","k","0","0","-1","68","25","15","0","1","0","3"
"1183","f","2","1","2","69","92","19","0","1","0","3"
"1172","k","3","0","0","70","71","54","0","1","1","3"
"1511","f","2","1","2","71","50","39","1","1","0","3"
"1170","d","3","1","0","72","56","37","1","1","1","3"
"1666","j","0","0","-1","73","48","16","1","1","1","3"
"1098","k","3","0","0","74","6","57","0","1","1","3"
"1557","f","2","1","2","75","80","17","1","1","1","3"
"1110","k","3","0","0","76","60","79","0","1","1","3"
"1258","f","2","1","2","77","4","77","1","1","1","3"
"1013","k","3","0","0","78","93","19","1","1","1","3"
"1238","d","2","1","2","79","90","11","1","1","0","3"
"1381","j","3","0","0","80","66","67","1","1","0","3"
"1364","j","3","0","0","81","99","51","0","1","0","3"
"1281","d","3","1","0","82","98","24","0","1","0","3"
"1784","f","3","1","0","83","90","32","0","1","1","3"
"null","null","-1","0","-1","84","95","92","1","2","1","3"
"1228","d","2","1","2","85","54","46","1","2","1","3"
"1605","f","4","1","1","86","80","75","0","2","1","3"
"1489","k","3","0","0","87","83","21","0","2","1","3"
"2050","k","3","0","0","88","10","50","0","2","1","3"
"1169","f","2","1","2","89","83","64","0","2","0","3"
"1388","j","0","0","-1","90","42","0","1","2","1","3"
"1538","k","0","0","-1","91","5","4","0","2","0","3"
"1186","d","2","1","2","92","77","5","1","2","0","3"
"1704","k","0","0","-1","93","66","81","1","2","0","3"
"1669","k","0","0","-1","94","37","51","1","2","0","3"
"1414","j","0","0","-1","95","35","69","0","2","1","3"
"1558","k","0","0","-1","96","59","92","1","2","0","3"
"1648","f","4","1","1","97","45","7","1","2","0","3"
"1325","f","2","1","2","98","34","53","0","2","0","3"
"1397","f","3","1","0","99","12","41","1","2","0","3"
"1370","f","3","1","0","100","44","74","0","2","1","3"
"1248","d","4","1","1","101","99","81","1","2","0","3"
"null","null","-1","0","-1","102","18","68","0","2","1","3"
"989","d","3","1","0","103","1","79","0","2","1","3"
"982","k","3","0","0","104","30","71","1","3","1","3"
"969","d","3","1","0","105","41","23","1","3","0","3"
"961","d","2","1","2","106","27","86","0","3","1","3"
"null","null","-1","1","-1","107","16","18","0","3","0","3"
"null","null","-1","1","-1","108","30","33","1","3","0","3"
"null","null","-1","0","-1","109","70","13","1","3","1","3"
"1452","k","0","0","-1","110","78","0","1","3","0","3"
"1342","f","3","1","0","111","14","66","0","3","1","3"
"1330","d","3","1","0","112","89","90","0","3","1","3"
"1520","j","3","0","0","113","4","25","0","3","0","3"
"1279","f","4","1","1","114","5","73","1","3","1","3"
"1041","k","3","0","0","115","24","28","1","3","1","3"
"1500","j","3","0","0","116","83","51","1","3","0","3"
"1612","f","3","1","0","117","25","14","1","3","0","3"
"1939","k","3","0","0","118","97","55","0","3","1","3"
"1517","k","0","0","-1","119","98","56","0","3","0","3"
"1479","k","0","0","-1","120","91","15","0","3","0","3"
"1151","f","3","1","0","121","83","3","0","3","0","3"
"2230","j","0","0","-1","122","46","52","1","3","1","3"
"881","d","2","1","2","123","55","83","0","3","1","3"
"1403","k","3","0","0","124","4","39","1","4","1","3"
"1619","j","3","0","0","125","95","11","0","4","0","3"
"1193","d","2","1","2","126","21","55","0","4","1","3"
"1275","k","3","0","0","127","28","58","1","4","1","3"
"1142","f","2","1","2","128","81","32","0","4","0","3"
"996","d","2","1","2","129","70","45","1","4","1","3"
"1173","f","2","1","2","130","71","27","0","4","0","3"
"1194","f","2","1","2","131","13","3","0","4","1","3"
"1794","k","0","0","-1","132","7","97","1","4","0","3"
"1121","k","3","0","0","133","16","97","1","4","1","3"
"1443","k","3","0","0","134","80","96","0","4","1","3"
"1046","f","2","1","2","135","18","29","1","4","0","3"
"1483","k","0","0","-1","136","5","15","0","4","0","3"
"1014","f","4","1","1","137","97","40","1","4","0","3"
"1533","k","0","0","-1","138","90","52","1","4","0","3"
"1265","f","4","1","1","139","5","17","1","4","0","3"
"1961","k","3","0","0","140","20","57","0","4","1","3"
"1842","d","3","1","0","141","7","73","0","4","1","3"
"1634","f","2","1","2","142","3","89","1","4","0","3"
"1150","j","0","0","-1","143","80","74","0","4","1","3"
"1424","k","3","0","0","144","54","42","1","5","1","3"
"1564","k","0","0","-1","145","22","19","0","5","0","3"
"null","null","-1","0","-1","146","45","91","0","5","0","3"
"1080","d","3","1","0","147","83","23","1","5","0","3"
"1393","f","2","1","2","148","20","55","0","5","1","3"
"1339","f","2","1","2","149","89","67","1","5","0","3"
"1641","j","0","0","-1","150","76","0","1","5","1","3"
"1085","f","2","1","2","151","5","43","1","5","1","3"
"1172","j","3","0","0","152","54","84","0","5","0","3"
"1134","f","4","1","1","153","94","70","1","5","0","3"
"1197","k","0","0","-1","154","32","28","1","5","0","3"
"994","d","2","1","2","155","33","69","1","5","1","3"
"1420","k","3","0","0","156","46","74","0","5","1","3"
"1228","f","4","1","1","157","52","95","1","5","1","3"
"659","j","3","0","0","158","13","60","1","5","0","3"
"1886","j","0","0","-1","159","88","7","0","5","1","3"
"1378","d","2","1","2","160","73","23","0","5","0","3"
"1035","f","2","1","2","161","13","67","0","5","0","3"
"1384","j","0","0","-1","162","33","56","0","5","1","3"
"975","f","2","1","2","163","69","51","0","5","1","3"
"null","null","-1","0","-1","164","11","14","1","6","0","3"
"null","null","-1","0","-1","165","35","51","0","6","1","3"
"1264","f","2","1","2","166","99","9","0","6","0","3"
"1878","d","2","1","2","167","75","84","0","6","1","3"
"null","null","-1","0","-1","168","33","83","0","6","0","3"
"1223","f","4","1","1","169","1","98","0","6","1","3"
"1574","k","3","0","0","170","7","62","1","6","1","3"
"2024","j","3","0","0","171","79","95","1","6","0","3"
"1518","k","0","0","-1","172","88","26","1","6","0","3"
"null","null","-1","0","-1","173","27","30","0","6","1","3"
"787","d","4","1","1","174","99","13","1","6","0","3"
"1674","f","2","1","2","175","38","96","0","6","1","3"
"1071","f","2","1","2","176","39","40","1","6","1","3"
"1564","f","3","1","0","177","73","87","0","6","1","3"
"985","d","2","1","2","178","9","88","0","6","0","3"
"1355","j","3","0","0","179","4","18","0","6","0","3"
"1505","k","0","0","-1","180","4","98","1","6","0","3"
"897","d","3","1","0","181","47","80","1","6","1","3"
"1026","d","4","1","1","182","6","54","1","6","1","3"
"944","k","0","0","-1","183","98","67","1","6","0","3"
"1390","d","2","1","2","184","25","90","0","7","0","3"
"1306","k","0","0","-1","185","59","42","0","7","0","3"
"1386","j","3","0","0","186","2","70","0","7","0","3"
"866","f","2","1","2","187","34","93","0","7","0","3"
"957","f","2","1","2","188","68","41","1","7","0","3"
"1533","j","3","0","0","189","49","36","0","7","0","3"
"null","null","-1","0","-1","190","65","72","1","7","1","3"
"1646","f","2","1","2","191","68","10","0","7","0","3"
"null","null","-1","1","-1","192","31","63","1","7","1","3"
"1074","f","3","1","0","193","2","84","1","7","1","3"
"851","d","3","1","0","194","1","7","1","7","1","3"
"1440","k","3","0","0","195","96","0","0","7","1","3"
"1091","j","0","0","-1","196","92","83","0","7","1","3"
"1313","k","3","0","0","197","72","36","1","7","1","3"
"1044","k","0","0","-1","198","92","59","1","7","0","3"
"1470","j","0","0","-1","199","54","0","1","7","1","3"
"1157","k","3","0","0","200","84","87","1","7","1","3"
"1015","f","2","1","2","201","59","27","1","7","0","3"
"1304","d","2","1","2","202","14","88","0","7","0","3"
"1651","d","2","1","2","203","87","16","0","7","1","3"
"1374","k","0","0","-1","204","94","8","1","8","0","3"
"1015","d","2","1","2","205","7","49","0","8","1","3"
"1125","k","0","0","-1","206","28","85","1","8","0","3"
"1397","f","4","1","1","207","60","34","1","8","0","3"
"1135","j","3","0","0","208","57","2","1","8","0","3"
"980","f","2","1","2","209","70","3","1","8","0","3"
"922","k","3","0","0","210","91","98","1","8","1","3"
"1478","j","3","0","0","211","61","7","0","8","0","3"
"1226","j","3","0","0","212","85","95","0","8","0","3"
"1174","j","0","0","-1","213","78","47","0","8","1","3"
"1015","d","3","1","0","214","94","74","1","8","1","3"
"1618","d","4","1","1","215","15","4","0","8","1","3"
"1409","f","2","1","2","216","17","61","1","8","1","3"
"1201","f","2","1","2","217","17","47","1","8","1","3"
"1378","f","3","1","0","218","44","62","0","8","1","3"
"960","d","2","1","2","219","83","95","0","8","0","3"
"1794","j","3","0","0","220","58","85","0","8","0","3"
"null","null","-1","0","-1","221","95","44","1","8","1","3"
"1679","k","0","0","-1","222","91","80","0","8","0","3"
"1660","d","3","1","0","223","8","98","0","8","1","3"
"1094","f","2","1","2","224","99","67","0","9","0","3"
"1254","f","2","1","2","225","1","73","1","9","1","3"
"1334","j","0","0","-1","226","24","17","1","9","1","3"
"1401","k","0","0","-1","227","53","1","1","9","0","3"
"974","d","3","1","0","228","63","35","0","9","1","3"
"294","f","3","1","0","229","20","92","1","9","0","3"
"1066","f","2","1","2","230","13","74","0","9","0","3"
"1018","f","2","1","2","231","40","94","0","9","0","3"
"871","j","0","0","-1","232","8","14","1","9","1","3"
"1104","k","3","0","0","233","64","26","1","9","1","3"
"1115","f","2","1","2","234","86","83","0","9","0","3"
"1344","j","3","0","0","235","30","97","1","9","0","3"
"1288","k","3","0","0","236","67","81","0","9","1","3"
"1762","j","0","0","-1","237","17","30","0","9","1","3"
"1149","d","2","1","2","238","75","9","1","9","1","3"
"898","f","2","1","2","239","15","97","0","9","0","3"
"1005","d","2","1","2","240","72","58","1","9","0","3"
"1369","j","3","0","0","241","56","34","0","9","0","3"
"1846","k","3","0","0","242","87","54","0","9","1","3"
"1430","j","0","0","-1","243","49","15","1","9","1","3"
