"rt","key_press","reward","type","marble","trial_num","stim_1","stim_2","change_index","block","changed","marble_set"
"10306.5","d","2","1","0","1","91","84","0","0","0","4"
"1424.5","f","3","1","2","2","51","90","0","0","0","4"
"768","d","4","1","1","3","82","42","0","0","0","4"
"1065.5","d","2","1","0","4","49","78","0","0","0","4"
"672.2000000476837","d","2","1","0","5","31","16","0","0","0","4"
"498.2000000476837","d","3","1","2","6","51","0","0","0","0","4"
"510.60000002384186","d","4","1","1","7","7","52","0","0","0","4"
"608.6999999284744","f","3","1","2","8","54","42","0","0","0","4"
"1362.2000000476837","d","2","1","0","9","11","0","0","0","0","4"
"421.6999999284744","d","3","1","2","10","83","22","0","0","0","4"
"469.60000002384186","d","2","1","0","11","66","0","0","0","0","4"
"698.3999999761581","f","3","1","2","12","3","95","0","0","0","4"
"369.8000000715256","d","3","1","2","13","36","66","0","0","0","4"
"590","d","2","1","0","14","33","49","0","0","0","4"
"518.8999999761581","d","4","1","1","15","74","90","0","0","0","4"
"1202.5","d","3","1","2","16","42","64","0","0","0","4"
"1051.2000000476837","d","2","1","0","17","82","40","0","0","0","4"
"1669","d","2","1","0","18","8","73","0","0","0","4"
"566.1000000238419","d","2","1","0","19","48","14","0","0","0","4"
"432.7000000476837","f","2","1","0","20","70","94","0","0","0","4"
"3427.5999999046326","j","0","0","-1","21","13","2","1","0","1","4"
"7381.899999976158","j","3","0","2","22","7","62","0","0","0","4"
"1316.8999999761581","k","3","0","2","23","33","70","0","0","1","4"
"1761.7000000476837","k","0","0","-1","24","91","60","0","0","0","4"
"1370.3999999761581","j","0","0","-1","25","33","12","0","0","1","4"
"945.3000000715256","k","3","0","2","26","44","3","1","0","1","4"
"327.1999999284744","j","0","0","-1","27","19","32","1","0","1","4"
"391.10000002384186","k","3","0","2","28","79","47","1","0","1","4"
"388.7000000476837","k","3","0","2","29","33","30","1","0","1","4"
"1322.1000000238419","k","3","0","2","30","98","30","0","0","1","4"
"327.89999997615814","k","3","0","2","31","39","1","1","0","1","4"
"432.10000002384186","j","0","0","-1","32","49","66","1","0","1","4"
"418.60000002384186","k","3","0","2","33","35","72","1","0","1","4"
"487.89999997615814","k","0","0","-1","34","24","74","0","0","0","4"
"1893.6000000238419","j","3","0","2","35","44","17","0","0","0","4"
"1360.1000000238419","j","3","0","2","36","14","67","1","0","0","4"
"583.2999999523163","j","3","0","2","37","53","17","1","0","0","4"
"1136.6000000238419","k","0","0","-1","38","13","90","0","0","0","4"
"851.3000000715256","k","0","0","-1","39","92","48","1","0","0","4"
"1140","k","0","0","-1","40","50","63","0","0","0","4"
"5632.600000023842","","","","","","","","","","",""
"5524.699999928474","","","","","","","","","","",""
"2007.3999999761581","j","3","0","2","43","43","98","1","0","0","4"
"1097.7999999523163","k","0","0","-1","44","6","44","0","0","0","4"
"null","null","-1","1","-1","45","83","58","1","0","0","4"
"null","null","-1","1","-1","46","78","32","1","0","1","4"
"null","null","-1","0","-1","47","68","38","0","0","1","4"
"746.3999999761581","d","3","1","2","48","95","49","1","0","1","4"
"965.2000000476837","j","0","0","-1","49","99","62","0","0","1","4"
"975.2000000476837","f","2","1","0","50","51","24","0","0","1","4"
"1128.2999999523163","k","0","0","-1","51","24","5","0","0","0","4"
"1011.7999999523163","f","3","1","2","52","78","2","0","0","0","4"
"null","null","-1","1","-1","53","59","2","0","0","1","4"
"1222.7000000476837","f","2","1","0","54","95","4","0","0","1","4"
"1340.2999999523163","d","4","1","1","55","19","22","1","0","1","4"
"1262.8000000715256","j","0","0","-1","56","35","36","0","0","1","4"
"1135.3999999761581","k","0","0","-1","57","6","52","1","0","0","4"
"990.7999999523163","j","3","0","2","58","7","48","0","0","0","4"
"1186.8999999761581","k","0","0","-1","59","8","5","1","0","0","4"
"1134.3999999761581","d","2","1","0","60","44","94","1","0","0","4"
"1570.3999999761581","k","3","0","2","61","80","78","1","0","1","4"
"1578.6999999284744","f","2","1","0","62","54","60","1","0","0","4"
"765.8999999761581","f","2","1","0","63","86","49","1","1","1","4"
"1420.5","f","3","1","2","64","82","89","0","1","0","4"
"1815.5","j","3","0","2","65","62","95","1","1","0","4"
"939.3000000715256","f","2","1","0","66","34","45","0","1","0","4"
"null","null","-1","0","-1","67","56","10","1","1","1","4"
"1346.7999999523163","k","3","0","2","68","54","7","1","1","1","4"
"1436.7000000476837","k","3","0","2","69","17","39","0","1","1","4"
"1577.5","k","0","0","-1","70","56","93","1","1","0","4"
"1283.3999999761581","d","2","1","0","71","80","29","0","1","0","4"
"1066.0999999046326","f","3","1","2","72","97","71","1","1","0","4"
"577.6000000238419","d","2","1","0","73","75","77","0","1","1","4"
"649.3000000715256","d","2","1","0","74","10","93","1","1","0","4"
"1331.7999999523163","j","3","0","2","75","64","42","0","1","0","4"
"1578.5","k","3","0","2","76","61","7","0","1","1","4"
"1108.3000000715256","k","3","0","2","77","92","18","0","1","1","4"
"1232.5999999046326","k","0","0","-1","78","63","39","1","1","0","4"
"799.7000000476837","d","2","1","0","79","49","78","0","1","1","4"
"1182.2000000476837","k","3","0","2","80","35","77","1","1","1","4"
"914.8999999761581","f","3","1","2","81","33","48","0","1","0","4"
"700.3000000715256","f","3","1","2","82","20","1","1","1","1","4"
"1501.4000000953674","j","3","0","2","83","21","14","0","2","0","4"
"1282.2999999523163","d","2","1","0","84","60","2","1","2","0","4"
"1772.8999999761581","k","3","0","2","85","66","58","0","2","1","4"
"959.6999999284744","d","3","1","2","86","21","82","1","2","0","4"
"932.7000000476837","d","2","1","0","87","12","28","0","2","1","4"
"1377.3000000715256","k","3","0","2","88","55","17","1","2","1","4"
"1579","j","3","0","2","89","54","29","0","2","0","4"
"766.5","d","2","1","0","90","9","91","0","2","0","4"
"756.6000000238419","d","2","1","0","91","95","34","1","2","0","4"
"921.1000000238419","d","2","1","0","92","85","24","0","2","1","4"
"996.1000000238419","d","3","1","2","93","98","4","1","2","0","4"
"null","null","-1","0","-1","94","5","71","0","2","0","4"
"571.2999999523163","d","2","1","0","95","27","77","1","2","1","4"
"1654.8000000715256","k","3","0","2","96","85","58","1","2","1","4"
"849.7000000476837","d","2","1","0","97","27","59","1","2","1","4"
"1309","k","3","0","2","98","40","23","1","2","1","4"
"1673.3999999761581","k","3","0","2","99","41","29","0","2","1","4"
"1161.7999999523163","k","3","0","2","100","2","9","0","2","1","4"
"1080.2999999523163","d","2","1","0","101","78","28","0","2","0","4"
"1348.1999999284744","j","3","0","2","102","70","28","1","2","0","4"
"568.8000000715256","d","2","1","0","103","77","79","1","3","1","4"
"735.6000000238419","f","4","1","1","104","59","95","0","3","1","4"
"1814.7000000476837","j","3","0","2","105","39","1","0","3","0","4"
"1786.7999999523163","j","3","0","2","106","98","43","1","3","0","4"
"1782.6999999284744","j","3","0","2","107","68","67","0","3","0","4"
"976.8000000715256","d","3","1","2","108","60","40","0","3","1","4"
"1265.6999999284744","j","3","0","2","109","38","9","0","3","0","4"
"1135","d","2","1","0","110","40","47","1","3","0","4"
"1607.6000000238419","j","0","0","-1","111","87","19","1","3","1","4"
"1067","d","2","1","0","112","90","84","0","3","0","4"
"1041.1000000238419","j","3","0","2","113","51","61","1","3","0","4"
"1803.1000000238419","j","0","0","-1","114","75","51","1","3","1","4"
"1098.6999999284744","j","0","0","-1","115","16","75","1","3","1","4"
"1058.1000000238419","d","2","1","0","116","34","27","0","3","1","4"
"802.1000000238419","d","3","1","2","117","87","46","0","3","1","4"
"1468.6000000238419","k","3","0","2","118","19","11","0","3","1","4"
"670.7999999523163","d","3","1","2","119","75","4","0","3","0","4"
"750.1000000238419","f","2","1","0","120","81","46","1","3","0","4"
"868.1000000238419","f","2","1","0","121","4","95","1","3","1","4"
"1244.4000000953674","k","0","0","-1","122","91","77","1","3","0","4"
"1107.5999999046326","d","2","1","0","123","60","56","1","4","0","4"
"1159.8999999761581","k","0","0","-1","124","22","16","1","4","0","4"
"614.1000000238419","f","3","1","2","125","89","26","1","4","0","4"
"925.7999999523163","k","0","0","-1","126","60","46","1","4","0","4"
"1616","k","3","0","2","127","54","13","0","4","1","4"
"null","null","-1","0","-1","128","70","93","1","4","1","4"
"770.1000000238419","f","3","1","2","129","79","51","1","4","1","4"
"991.2999999523163","f","3","1","2","130","75","89","0","4","1","4"
"660.3000000715256","f","2","1","0","131","67","82","1","4","0","4"
"1746","k","3","0","2","132","4","90","1","4","1","4"
"1003.8999999761581","d","3","1","2","133","24","70","0","4","1","4"
"1128.7999999523163","k","0","0","-1","134","36","17","0","4","0","4"
"1745.2000000476837","k","3","0","2","135","1","59","0","4","1","4"
"null","null","-1","0","-1","136","19","18","1","4","1","4"
"1269.8999999761581","d","4","1","1","137","59","82","0","4","0","4"
"1334.3000000715256","j","0","0","-1","138","74","69","0","4","1","4"
"485.10000002384186","d","4","1","1","139","32","4","1","4","0","4"
"1133.3999999761581","j","3","0","2","140","75","35","0","4","0","4"
"974.2000000476837","d","2","1","0","141","35","43","0","4","1","4"
"817","d","2","1","0","142","17","51","0","4","0","4"
"1452.2000000476837","k","3","0","2","143","70","50","1","5","1","4"
"1407.2999999523163","k","3","0","2","144","18","26","1","5","1","4"
"2004.1000000238419","j","3","0","2","145","60","87","0","5","0","4"
"715.5","d","2","1","0","146","49","64","0","5","0","4"
"1706.9000000953674","j","3","0","2","147","88","90","1","5","0","4"
"705.1000000238419","d","3","1","2","148","49","66","1","5","0","4"
"768.3999999761581","d","2","1","0","149","50","60","1","5","1","4"
"884.5","d","4","1","1","150","82","12","1","5","1","4"
"836.2000000476837","d","2","1","0","151","87","7","0","5","0","4"
"1553.5","k","3","0","2","152","72","68","0","5","1","4"
"1432.6999999284744","j","3","0","2","153","36","70","0","5","0","4"
"933.0999999046326","d","4","1","1","154","50","2","0","5","0","4"
"1569.5","j","0","0","-1","155","91","88","0","5","1","4"
"929.5","d","2","1","0","156","12","37","1","5","1","4"
"1236.3999999761581","k","3","0","2","157","99","83","0","5","1","4"
"1223.7999999523163","k","0","0","-1","158","69","77","1","5","0","4"
"1265.2999999523163","j","3","0","2","159","23","45","1","5","0","4"
"922.1000000238419","d","2","1","0","160","49","40","0","5","0","4"
"760.5","d","4","1","1","161","99","56","0","5","1","4"
"831.3999999761581","d","3","1","2","162","82","58","1","5","1","4"
"1271","k","3","0","2","163","8","22","0","6","1","4"
"1109.5","j","3","0","2","164","54","8","1","6","0","4"
"1285.2999999523163","j","3","0","2","165","24","12","0","6","0","4"
"1129","d","4","1","1","166","37","68","1","6","1","4"
"787.4000000953674","d","2","1","0","167","38","29","0","6","1","4"
"1316.6000000238419","j","3","0","2","168","10","74","1","6","0","4"
"815.7999999523163","d","2","1","0","169","59","56","0","6","1","4"
"712.7000000476837","d","2","1","0","170","67","15","1","6","0","4"
"1397.5999999046326","k","3","0","2","171","95","84","1","6","1","4"
"885.5999999046326","d","3","1","2","172","78","0","0","6","0","4"
"726.7000000476837","d","2","1","0","173","91","58","1","6","0","4"
"807.5","f","3","1","2","174","36","19","1","6","1","4"
"894.6000000238419","k","3","0","2","175","75","27","1","6","1","4"
"1111.2000000476837","f","4","1","1","176","76","57","0","6","0","4"
"1542","k","3","0","2","177","49","56","0","6","1","4"
"753.1000000238419","d","2","1","0","178","46","70","0","6","1","4"
"1426.1999999284744","j","3","0","2","179","17","96","0","6","0","4"
"1283.6000000238419","d","2","1","0","180","30","58","1","6","0","4"
"1273","k","3","0","2","181","81","57","1","6","1","4"
"1159","j","3","0","2","182","80","83","0","6","0","4"
"1094.7999999523163","j","0","0","-1","183","61","54","0","7","1","4"
"435.60000002384186","f","3","1","2","184","20","69","0","7","1","4"
"1258.1000000238419","j","3","0","2","185","76","53","1","7","0","4"
"959","f","2","1","0","186","84","81","0","7","0","4"
"813.3999999761581","f","3","1","2","187","62","28","0","7","1","4"
"851.3000000715256","f","4","1","1","188","2","1","1","7","1","4"
"1003","j","3","0","2","189","42","97","0","7","0","4"
"1115.5","f","2","1","0","190","22","97","1","7","0","4"
"1290.3000000715256","f","2","1","0","191","85","90","0","7","1","4"
"null","null","-1","0","-1","192","5","72","1","7","1","4"
"1526","k","0","0","-1","193","69","86","1","7","0","4"
"1059.2999999523163","j","3","0","2","194","45","56","1","7","0","4"
"1254.1000000238419","j","3","0","2","195","68","40","1","7","0","4"
"1590.0999999046326","j","3","0","2","196","52","36","1","7","0","4"
"1122.3999999761581","k","3","0","2","197","1","21","0","7","1","4"
"1082.6000000238419","f","2","1","0","198","9","96","0","7","1","4"
"757.7999999523163","d","2","1","0","199","23","86","1","7","0","4"
"1101.7999999523163","f","2","1","0","200","62","45","0","7","1","4"
"1925","k","3","0","2","201","20","28","0","7","1","4"
"938.2999999523163","d","2","1","0","202","83","25","1","7","0","4"
"688.7000000476837","d","3","1","2","203","66","78","0","8","1","4"
"1261.8000000715256","j","3","0","2","204","88","16","0","8","0","4"
"462.39999997615814","d","3","1","2","205","63","45","1","8","0","4"
"1189.3999999761581","d","3","1","2","206","94","70","0","8","1","4"
"1121.1999999284744","j","3","0","2","207","77","3","1","8","0","4"
"555.2999999523163","d","3","1","2","208","26","4","1","8","1","4"
"583.3999999761581","d","3","1","2","209","58","62","0","8","1","4"
"1990.8999999761581","j","0","0","-1","210","36","27","1","8","1","4"
"1427.9000000953674","j","0","0","-1","211","66","23","1","8","1","4"
"714","d","3","1","2","212","94","87","1","8","0","4"
"1416.8000000715256","j","3","0","2","213","57","19","1","8","0","4"
"1338","k","3","0","2","214","18","80","0","8","1","4"
"1173.9000000953674","j","3","0","2","215","8","67","0","8","0","4"
"1116.3000000715256","f","2","1","0","216","92","79","1","8","0","4"
"939.5","d","3","1","2","217","86","18","1","8","0","4"
"943.1000000238419","f","2","1","0","218","81","7","0","8","1","4"
"1348.1000000238419","k","0","0","-1","219","96","54","0","8","0","4"
"538.2000000476837","d","4","1","1","220","9","17","0","8","1","4"
"1302.5","j","3","0","2","221","42","5","0","8","0","4"
"1574.0999999046326","k","3","0","2","222","31","82","1","8","1","4"
"1240.2999999523163","k","3","0","2","223","32","83","1","9","1","4"
"1479.2999999523163","j","3","0","2","224","89","0","1","9","0","4"
"1140.6000000238419","j","3","0","2","225","68","93","0","9","0","4"
"1281","j","3","0","2","226","61","21","1","9","0","4"
"1144.5","d","3","1","2","227","2","3","1","9","0","4"
"1015.5","j","3","0","2","228","86","15","0","9","0","4"
"873.1000000238419","d","4","1","1","229","87","36","0","9","1","4"
"1191.7000000476837","d","2","1","0","230","48","19","1","9","0","4"
"1245.1000000238419","k","3","0","2","231","62","59","1","9","1","4"
"542.5","d","3","1","2","232","41","31","1","9","0","4"
"843.3999999761581","d","2","1","0","233","45","80","0","9","1","4"
"1327.1000000238419","k","3","0","2","234","64","35","1","9","1","4"
"805.8999999761581","d","4","1","1","235","41","2","1","9","1","4"
"797.6999999284744","d","2","1","0","236","16","94","0","9","1","4"
"1013.6000000238419","j","3","0","2","237","91","95","0","9","0","4"
"1252","j","0","0","-1","238","87","49","0","9","1","4"
"653.6000000238419","d","3","1","2","239","1","15","0","9","0","4"
"1241.1999999284744","j","3","0","2","240","9","26","0","9","0","4"
"928.2999999523163","d","3","1","2","241","54","92","1","9","1","4"
"780.8999999761581","d","3","1","2","242","7","67","0","9","1","4"
