"rt","key_press","reward","type","marble","trial_num","stim_1","stim_2","change_index","block","changed","marble_set"
"6762","f","2","1","2","1","35","46","0","0","0","3"
"1817","d","2","1","2","2","13","88","0","0","0","3"
"1464","d","2","1","2","3","35","76","0","0","0","3"
"835","f","4","1","1","4","56","12","0","0","0","3"
"1050","f","2","1","2","5","62","76","0","0","0","3"
"1164","f","3","1","0","6","35","73","0","0","0","3"
"637","d","3","1","0","7","74","39","0","0","0","3"
"559","d","2","1","2","8","85","65","0","0","0","3"
"650","f","3","1","0","9","30","31","0","0","0","3"
"668","f","2","1","2","10","78","3","0","0","0","3"
"524","d","4","1","1","11","10","11","0","0","0","3"
"504","f","3","1","0","12","33","88","0","0","0","3"
"963","d","2","1","2","13","26","95","0","0","0","3"
"758","f","2","1","2","14","28","25","0","0","0","3"
"88","d","2","1","2","15","20","70","0","0","0","3"
"704","f","4","1","1","16","63","96","0","0","0","3"
"595","d","2","1","2","17","90","33","0","0","0","3"
"631","f","2","1","2","18","84","74","0","0","0","3"
"632","d","4","1","1","19","23","91","0","0","0","3"
"680","f","3","1","0","20","63","69","0","0","0","3"
"17337","k","3","0","0","21","76","42","1","0","1","3"
"1828","j","0","0","-1","22","56","15","1","0","1","3"
"2491","k","0","0","-1","23","23","6","0","0","0","3"
"1738","k","0","0","-1","24","72","41","1","0","0","3"
"1373","j","0","0","-1","25","40","38","0","0","1","3"
"779","k","3","0","0","26","53","75","0","0","1","3"
"710","j","3","0","0","27","11","69","0","0","0","3"
"733","k","3","0","0","28","62","68","0","0","1","3"
"1261","k","3","0","0","29","87","88","1","0","1","3"
"1257","j","3","0","0","30","40","18","1","0","0","3"
"941","k","0","0","-1","31","84","30","0","0","0","3"
"1337","k","0","0","-1","32","13","46","0","0","0","3"
"665","j","0","0","-1","33","11","49","1","0","1","3"
"637","k","3","0","0","34","48","90","0","0","1","3"
"654","k","3","0","0","35","80","81","0","0","1","3"
"667","k","3","0","0","36","88","59","1","0","1","3"
"1086","k","0","0","-1","37","48","96","1","0","0","3"
"635","j","3","0","0","38","59","76","1","0","0","3"
"651","j","3","0","0","39","86","83","1","0","0","3"
"723","j","3","0","0","40","62","76","0","0","0","3"
"7836","","","","","","","","","","",""
"7157","","","","","","","","","","",""
"null","null","-1","1","-1","43","20","28","1","0","0","3"
"1402","j","0","0","-1","44","12","28","1","0","1","3"
"978","k","0","0","-1","45","19","64","1","0","0","3"
"null","null","-1","1","-1","46","89","98","0","0","1","3"
"1635","d","3","1","0","47","26","2","1","0","1","3"
"735","d","2","1","2","48","43","29","0","0","1","3"
"889","f","2","1","2","49","8","85","0","0","1","3"
"null","null","-1","0","-1","50","13","49","1","0","1","3"
"1200","f","2","1","2","51","64","46","0","0","0","3"
"795","d","2","1","2","52","18","5","0","0","0","3"
"null","null","-1","0","-1","53","52","34","0","0","1","3"
"1088","d","2","1","2","54","71","10","1","0","0","3"
"1400","k","0","0","-1","55","55","32","0","0","0","3"
"888","d","2","1","2","56","80","2","1","0","1","3"
"894","d","2","1","2","57","31","13","1","0","1","3"
"1267","j","3","0","0","58","41","19","1","0","0","3"
"1360","k","0","0","-1","59","87","96","0","0","0","3"
"1100","j","0","0","-1","60","49","73","0","0","1","3"
"1200","k","0","0","-1","61","50","26","0","0","0","3"
"1092","j","3","0","0","62","27","84","1","0","0","3"
"941","d","3","1","0","63","22","29","1","1","0","3"
"1312","j","3","0","0","64","64","29","0","1","0","3"
"1459","j","3","0","0","65","85","56","0","1","0","3"
"1527","j","0","0","-1","66","30","41","0","1","1","3"
"1134","f","2","1","2","67","94","8","1","1","1","3"
"1244","j","0","0","-1","68","94","63","1","1","1","3"
"1332","j","3","0","0","69","30","10","1","1","0","3"
"985","f","3","1","0","70","85","96","0","1","1","3"
"1155","j","0","0","-1","71","67","61","0","1","1","3"
"998","f","2","1","2","72","43","28","1","1","1","3"
"1101","j","3","0","0","73","52","41","0","1","0","3"
"1019","f","3","1","0","74","5","23","0","1","1","3"
"761","f","2","1","2","75","79","0","1","1","1","3"
"958","d","3","1","0","76","20","1","1","1","0","3"
"1137","k","3","0","0","77","11","91","1","1","1","3"
"936","f","2","1","2","78","5","30","1","1","0","3"
"1089","f","2","1","2","79","98","40","0","1","0","3"
"1031","f","2","1","2","80","98","89","0","1","1","3"
"1637","k","0","0","-1","81","1","68","0","1","0","3"
"955","k","0","0","-1","82","81","95","1","1","0","3"
"1230","k","3","0","0","83","68","88","1","2","1","3"
"1017","j","3","0","0","84","18","33","0","2","0","3"
"1134","j","3","0","0","85","84","90","0","2","0","3"
"null","null","-1","1","-1","86","61","50","0","2","1","3"
"1147","f","2","1","2","87","61","53","0","2","1","3"
"937","j","3","0","0","88","39","18","1","2","0","3"
"1006","j","3","0","0","89","60","95","0","2","0","3"
"1132","j","3","0","0","90","93","68","0","2","0","3"
"1405","d","2","1","2","91","87","17","0","2","1","3"
"1028","j","3","0","0","92","84","11","1","2","0","3"
"705","f","2","1","2","93","78","14","1","2","0","3"
"1383","f","2","1","2","94","3","37","1","2","1","3"
"999","j","0","0","-1","95","6","25","1","2","1","3"
"1012","f","2","1","2","96","61","7","1","2","0","3"
"957","d","2","1","2","97","8","21","0","2","0","3"
"1125","k","3","0","0","98","30","91","1","2","1","3"
"1008","f","2","1","2","99","67","8","1","2","1","3"
"1176","j","0","0","-1","100","40","61","0","2","1","3"
"null","null","-1","1","-1","101","64","47","1","2","1","3"
"860","f","3","1","0","102","42","20","0","2","0","3"
"1333","k","0","0","-1","103","30","70","0","3","0","3"
"976","d","2","1","2","104","59","5","1","3","0","3"
"1220","k","3","0","0","105","68","71","1","3","1","3"
"1903","k","0","0","-1","106","65","81","0","3","0","3"
"1117","f","2","1","2","107","14","32","1","3","1","3"
"1029","j","3","0","0","108","4","36","1","3","0","3"
"1231","d","3","1","0","109","73","49","0","3","1","3"
"1043","f","3","1","0","110","47","58","1","3","0","3"
"1221","k","0","0","-1","111","17","16","1","3","0","3"
"1070","f","2","1","2","112","33","73","1","3","1","3"
"null","null","-1","1","-1","113","7","86","0","3","1","3"
"972","f","2","1","2","114","99","43","1","3","0","3"
"1341","j","0","0","-1","115","60","20","0","3","1","3"
"1405","j","3","0","0","116","67","60","0","3","0","3"
"1033","f","3","1","0","117","68","72","0","3","0","3"
"1213","j","3","0","0","118","55","84","0","3","0","3"
"1190","j","0","0","-1","119","17","16","0","3","1","3"
"1012","f","2","1","2","120","38","42","1","3","1","3"
"1148","j","0","0","-1","121","95","29","1","3","1","3"
"1006","f","2","1","2","122","67","88","0","3","1","3"
"1152","j","0","0","-1","123","73","67","0","4","1","3"
"1749","f","2","1","2","124","71","48","1","4","1","3"
"1121","f","2","1","2","125","11","71","1","4","0","3"
"899","d","4","1","1","126","61","63","1","4","1","3"
"1166","k","3","0","0","127","80","47","0","4","1","3"
"1299","j","0","0","-1","128","51","81","0","4","1","3"
"1108","f","3","1","0","129","65","33","0","4","0","3"
"1111","k","0","0","-1","130","10","81","0","4","0","3"
"1123","d","3","1","0","131","24","22","1","4","0","3"
"null","null","-1","1","-1","132","47","72","1","4","1","3"
"1104","k","0","0","-1","133","55","94","1","4","0","3"
"1157","f","2","1","2","134","32","22","1","4","0","3"
"996","j","0","0","-1","135","88","40","1","4","1","3"
"1048","d","3","1","0","136","58","45","0","4","1","3"
"824","k","0","0","-1","137","54","53","1","4","0","3"
"null","null","-1","0","-1","138","40","51","0","4","0","3"
"1142","f","2","1","2","139","31","3","0","4","0","3"
"1260","k","3","0","0","140","24","4","0","4","1","3"
"1088","f","3","1","0","141","32","81","1","4","0","3"
"1092","j","0","0","-1","142","73","72","0","4","1","3"
"1410","k","0","0","-1","143","16","82","1","5","0","3"
"null","null","-1","1","-1","144","69","75","1","5","0","3"
"null","null","-1","0","-1","145","4","81","0","5","0","3"
"null","null","-1","1","-1","146","82","17","1","5","1","3"
"null","null","-1","1","-1","147","52","42","0","5","0","3"
"null","null","-1","1","-1","148","41","20","1","5","1","3"
"1677","k","3","0","0","149","18","81","1","5","1","3"
"1957","j","3","0","0","150","62","80","0","5","0","3"
"1222","j","3","0","0","151","52","89","0","5","0","3"
"null","null","-1","0","-1","152","71","74","0","5","0","3"
"1495","d","3","1","0","153","79","83","1","5","1","3"
"1510","k","3","0","0","154","78","75","0","5","1","3"
"1026","f","3","1","0","155","85","43","1","5","1","3"
"1164","f","4","1","1","156","53","39","1","5","1","3"
"null","null","-1","0","-1","157","6","80","0","5","0","3"
"null","null","-1","1","-1","158","99","59","1","5","0","3"
"null","null","-1","0","-1","159","96","50","0","5","1","3"
"null","null","-1","1","-1","160","58","16","1","5","0","3"
"1462","d","3","1","0","161","88","61","0","5","1","3"
"null","null","-1","0","-1","162","70","4","0","5","1","3"
"null","null","-1","0","-1","163","40","1","0","6","1","3"
"1210","d","2","1","2","164","52","53","1","6","0","3"
"1806","j","0","0","-1","165","83","68","1","6","1","3"
"1052","f","2","1","2","166","21","18","1","6","0","3"
"1169","j","0","0","-1","167","55","95","1","6","1","3"
"1030","k","0","0","-1","168","25","6","0","6","0","3"
"1178","j","3","0","0","169","66","48","0","6","0","3"
"994","j","3","0","0","170","4","23","0","6","0","3"
"1141","j","0","0","-1","171","39","92","1","6","1","3"
"1115","f","4","1","1","172","12","17","0","6","1","3"
"1103","j","3","0","0","173","42","11","0","6","0","3"
"944","f","3","1","0","174","42","85","1","6","1","3"
"1513","d","3","1","0","175","59","93","0","6","1","3"
"1914","k","3","0","0","176","35","13","1","6","1","3"
"1023","f","2","1","2","177","21","78","0","6","0","3"
"1253","d","2","1","2","178","67","28","1","6","0","3"
"null","null","-1","0","-1","179","98","89","1","6","1","3"
"1492","d","4","1","1","180","70","81","0","6","0","3"
"961","d","2","1","2","181","46","41","0","6","1","3"
"1131","d","2","1","2","182","63","70","1","6","0","3"
"1439","k","0","0","-1","183","76","90","1","7","0","3"
"1096","d","2","1","2","184","61","97","0","7","0","3"
"1001","f","4","1","1","185","38","96","1","7","1","3"
"1287","j","0","0","-1","186","88","55","0","7","1","3"
"1086","d","2","1","2","187","97","67","0","7","0","3"
"1064","j","3","0","0","188","16","69","0","7","0","3"
"1283","j","3","0","0","189","1","79","0","7","0","3"
"1240","j","3","0","0","190","67","3","0","7","0","3"
"1244","f","3","1","0","191","99","98","1","7","1","3"
"1753","d","2","1","2","192","31","91","0","7","0","3"
"1037","k","3","0","0","193","63","66","0","7","1","3"
"1073","j","0","0","-1","194","55","15","1","7","1","3"
"1303","d","3","1","0","195","19","57","1","7","0","3"
"1588","d","2","1","2","196","35","27","0","7","1","3"
"1318","k","0","0","-1","197","43","26","1","7","0","3"
"987","d","4","1","1","198","40","59","1","7","1","3"
"1359","d","2","1","2","199","59","43","0","7","1","3"
"1217","d","2","1","2","200","71","5","1","7","1","3"
"1029","j","0","0","-1","201","70","20","1","7","1","3"
"1455","k","0","0","-1","202","73","69","1","7","0","3"
"null","null","-1","1","-1","203","58","44","0","8","1","3"
"1650","j","3","0","0","204","58","66","0","8","0","3"
"1087","f","2","1","2","205","96","91","1","8","1","3"
"1827","d","3","1","0","206","80","6","1","8","1","3"
"1075","j","3","0","0","207","34","35","0","8","0","3"
"1238","j","0","0","-1","208","42","52","0","8","1","3"
"1107","d","4","1","1","209","68","74","1","8","1","3"
"null","null","-1","0","-1","210","42","35","1","8","1","3"
"1013","d","2","1","2","211","97","76","0","8","0","3"
"1103","k","3","0","0","212","12","1","1","8","1","3"
"1194","d","2","1","2","213","83","79","1","8","0","3"
"1114","j","0","0","-1","214","96","74","0","8","1","3"
"null","null","-1","0","-1","215","29","53","1","8","0","3"
"null","null","-1","1","-1","216","42","72","1","8","0","3"
"1148","k","0","0","-1","217","49","61","1","8","0","3"
"1149","d","4","1","1","218","1","26","0","8","0","3"
"1371","d","3","1","0","219","31","67","1","8","1","3"
"1024","d","2","1","2","220","4","29","0","8","1","3"
"1275","k","0","0","-1","221","31","71","0","8","0","3"
"1183","j","3","0","0","222","74","8","0","8","0","3"
"1069","j","3","0","0","223","59","52","1","9","0","3"
"1198","d","2","1","2","224","6","0","1","9","1","3"
"1027","j","3","0","0","225","90","95","1","9","0","3"
"952","k","0","0","-1","226","76","30","0","9","0","3"
"1006","k","0","0","-1","227","16","85","0","9","0","3"
"1084","d","2","1","2","228","7","2","1","9","1","3"
"1495","f","2","1","2","229","42","66","1","9","1","3"
"1331","d","2","1","2","230","75","91","1","9","1","3"
"1164","d","3","1","0","231","58","15","0","9","1","3"
"1261","k","0","0","-1","232","23","34","0","9","0","3"
"1103","d","2","1","2","233","46","71","1","9","0","3"
"1062","j","0","0","-1","234","75","8","0","9","1","3"
"1175","j","0","0","-1","235","6","68","1","9","1","3"
"1123","d","3","1","0","236","60","72","0","9","0","3"
"991","k","0","0","-1","237","21","16","0","9","0","3"
"953","j","0","0","-1","238","14","32","0","9","1","3"
"1200","d","3","1","0","239","60","31","0","9","0","3"
"1297","j","0","0","-1","240","36","40","1","9","1","3"
"1002","f","3","1","0","241","48","47","1","9","0","3"
"1175","d","3","1","0","242","61","15","0","9","1","3"
