"rt","key_press","reward","type","marble","trial_num","stim_1","stim_2","change_index","block","changed","marble_set"
"7334","f","4","1","2","1","98","4","0","0","0","1"
"7","d","2","1","0","2","85","35","0","0","0","1"
"1","d","2","1","0","3","25","31","0","0","0","1"
"92","f","2","1","0","4","40","35","0","0","0","1"
"8","f","4","1","2","5","12","74","0","0","0","1"
"0","f","3","1","1","6","15","23","0","0","0","1"
"110","f","3","1","1","7","77","84","0","0","0","1"
"14","d","3","1","1","8","73","78","0","0","0","1"
"0","f","4","1","2","9","56","95","0","0","0","1"
"122","f","4","1","2","10","16","17","0","0","0","1"
"40","f","4","1","2","11","50","32","0","0","0","1"
"223","f","2","1","0","12","36","35","0","0","0","1"
"37","f","2","1","0","13","48","72","0","0","0","1"
"132","f","2","1","0","14","15","43","0","0","0","1"
"693","f","2","1","0","15","6","93","0","0","0","1"
"84","f","2","1","0","16","39","25","0","0","0","1"
"28","d","2","1","0","17","81","32","0","0","0","1"
"327","d","3","1","1","18","82","27","0","0","0","1"
"303","f","3","1","1","19","4","20","0","0","0","1"
"45","f","2","1","0","20","95","15","0","0","0","1"
"3319","k","0","0","-1","21","57","53","0","0","0","1"
"88","k","3","0","1","22","50","4","0","0","1","1"
"41","k","3","0","1","23","36","32","1","0","1","1"
"33","k","0","0","-1","24","34","8","1","0","0","1"
"77","k","0","0","-1","25","18","14","0","0","0","1"
"289","k","3","0","1","26","79","70","0","0","1","1"
"66","k","3","0","1","27","77","56","1","0","1","1"
"124","k","0","0","-1","28","59","66","1","0","0","1"
"94","k","0","0","-1","29","2","92","0","0","0","1"
"209","k","0","0","-1","30","78","79","0","0","0","1"
"555","k","0","0","-1","31","60","55","1","0","0","1"
"75","k","0","0","-1","32","9","52","0","0","0","1"
"505","k","3","0","1","33","10","43","0","0","1","1"
"193","k","0","0","-1","34","65","53","1","0","0","1"
"147","k","3","0","1","35","71","22","0","0","1","1"
"31","k","3","0","1","36","71","87","0","0","1","1"
"42","k","0","0","-1","37","14","51","0","0","0","1"
"23","k","0","0","-1","38","68","81","1","0","0","1"
"96","k","3","0","1","39","89","18","1","0","1","1"
"962","k","3","0","1","40","56","7","1","0","1","1"
"2832","","","","","","","","","","",""
"3263","","","","","","","","","","",""
"3","k","3","0","1","43","34","6","0","0","1","1"
"null","null","-1","0","-1","44","12","16","0","0","1","1"
"135","k","0","0","-1","45","22","90","0","0","0","1"
"774","d","2","1","0","46","81","27","0","0","0","1"
"1097","d","2","1","0","47","2","70","1","0","0","1"
"19","k","0","0","-1","48","91","77","1","0","0","1"
"218","d","3","1","1","49","80","6","0","0","0","1"
"26","d","2","1","0","50","91","84","1","0","1","1"
"160","k","3","0","1","51","36","41","0","0","1","1"
"243","k","3","0","1","52","55","70","1","0","1","1"
"628","d","2","1","0","53","51","65","0","0","1","1"
"175","d","2","1","0","54","45","13","1","0","1","1"
"38","d","4","1","2","55","74","63","0","0","1","1"
"43","j","3","0","1","56","76","78","1","0","0","1"
"142","k","0","0","-1","57","87","29","1","0","0","1"
"26","d","2","1","0","58","41","83","1","0","1","1"
"48","d","4","1","2","59","34","58","0","0","0","1"
"null","null","-1","1","-1","60","10","83","1","0","0","1"
"81","k","0","0","-1","61","84","14","1","0","0","1"
"83","k","3","0","1","62","82","11","0","0","1","1"
"42","k","0","0","-1","63","3","4","0","1","0","1"
"187","j","0","0","-1","64","49","59","1","1","1","1"
"null","null","-1","1","-1","65","42","15","1","1","0","1"
"91","d","3","1","1","66","91","95","1","1","1","1"
"10","d","4","1","2","67","7","80","0","1","1","1"
"null","null","-1","0","-1","68","37","45","1","1","1","1"
"45","f","2","1","0","69","63","5","0","1","1","1"
"null","null","-1","0","-1","70","84","1","1","1","1","1"
"83","f","4","1","2","71","32","33","0","1","1","1"
"null","null","-1","0","-1","72","10","22","1","1","0","1"
"null","null","-1","0","-1","73","61","55","1","1","0","1"
"62","f","2","1","0","74","92","85","0","1","0","1"
"12","f","3","1","1","75","34","36","0","1","1","1"
"101","d","3","1","1","76","72","57","0","1","0","1"
"null","null","-1","0","-1","77","16","75","1","1","0","1"
"159","f","2","1","0","78","60","13","0","1","0","1"
"null","null","-1","0","-1","79","39","35","1","1","1","1"
"null","null","-1","0","-1","80","10","19","1","1","1","1"
"213","j","3","0","1","81","4","18","0","1","0","1"
"null","null","-1","1","-1","82","88","87","0","1","0","1"
"6","f","2","1","0","83","6","44","0","2","0","1"
"71","d","2","1","0","84","82","62","0","2","0","1"
"null","null","-1","0","-1","85","60","41","1","2","1","1"
"null","null","-1","1","-1","86","1","48","1","2","1","1"
"583","k","0","0","-1","87","69","73","0","2","0","1"
"20","j","0","0","-1","88","68","20","0","2","1","1"
"1965","d","4","1","2","89","96","83","1","2","1","1"
"81","f","2","1","0","90","42","30","0","2","0","1"
"917","j","0","0","-1","91","19","23","0","2","1","1"
"1661","f","2","1","0","92","30","55","1","2","1","1"
"165","f","2","1","0","93","49","98","0","2","0","1"
"1700","k","0","0","-1","94","52","97","1","2","0","1"
"39","f","2","1","0","95","24","2","0","2","1","1"
"null","null","-1","0","-1","96","64","81","1","2","1","1"
"41","k","0","0","-1","97","83","46","1","2","0","1"
"null","null","-1","0","-1","98","22","66","1","2","0","1"
"82","j","0","0","-1","99","67","96","1","2","1","1"
"19","f","2","1","0","100","70","43","0","2","1","1"
"59","d","2","1","0","101","95","10","1","2","0","1"
"null","null","-1","0","-1","102","98","32","0","2","0","1"
"225","f","3","1","1","103","24","81","1","3","0","1"
"8","d","2","1","0","104","42","26","1","3","0","1"
"1734","j","3","0","1","105","79","74","1","3","0","1"
"45","j","0","0","-1","106","15","91","1","3","1","1"
"181","k","3","0","1","107","48","73","0","3","1","1"
"228","j","0","0","-1","108","81","76","0","3","1","1"
"1","d","2","1","0","109","83","57","0","3","0","1"
"141","k","0","0","-1","110","52","28","1","3","0","1"
"138","f","2","1","0","111","62","34","0","3","1","1"
"18","j","0","0","-1","112","15","90","1","3","1","1"
"47","j","3","0","1","113","89","49","1","3","0","1"
"32","f","2","1","0","114","59","30","1","3","0","1"
"102","d","3","1","1","115","60","72","0","3","1","1"
"249","k","0","0","-1","116","98","43","0","3","0","1"
"61","k","3","0","1","117","39","90","0","3","1","1"
"89","f","3","1","1","118","39","28","0","3","0","1"
"62","d","2","1","0","119","20","62","1","3","0","1"
"170","k","3","0","1","120","19","23","0","3","1","1"
"603","f","2","1","0","121","38","44","0","3","1","1"
"11","f","2","1","0","122","50","7","1","3","1","1"
"250","k","0","0","-1","123","64","18","1","4","0","1"
"null","null","-1","0","-1","124","47","22","1","4","1","1"
"null","null","-1","1","-1","125","33","11","1","4","1","1"
"null","null","-1","0","-1","126","51","85","0","4","0","1"
"1015","d","3","1","1","127","21","17","0","4","0","1"
"387","j","0","0","-1","128","15","61","0","4","1","1"
"181","j","0","0","-1","129","22","68","1","4","1","1"
"292","f","3","1","1","130","17","71","0","4","0","1"
"750","j","3","0","1","131","58","78","1","4","0","1"
"123","j","3","0","1","132","57","52","1","4","0","1"
"23","d","4","1","2","133","59","94","0","4","1","1"
"202","f","2","1","0","134","86","24","1","4","0","1"
"1121","j","3","0","1","135","4","52","0","4","0","1"
"110","d","3","1","1","136","72","25","0","4","0","1"
"46","f","4","1","2","137","18","3","0","4","0","1"
"124","f","2","1","0","138","63","3","0","4","1","1"
"119","f","2","1","0","139","78","41","1","4","1","1"
"16","f","2","1","0","140","57","77","1","4","1","1"
"72","j","0","0","-1","141","77","26","0","4","1","1"
"401","k","3","0","1","142","70","24","1","4","1","1"
"841","d","2","1","0","143","12","63","1","5","1","1"
"128","j","3","0","1","144","45","22","1","5","0","1"
"62","f","3","1","1","145","95","20","1","5","1","1"
"139","j","3","0","1","146","74","15","0","5","0","1"
"7","k","0","0","-1","147","17","57","1","5","0","1"
"411","f","3","1","1","148","90","1","0","5","0","1"
"98","d","2","1","0","149","41","79","0","5","1","1"
"279","j","0","0","-1","150","7","38","1","5","1","1"
"14","k","3","0","1","151","36","81","1","5","1","1"
"109","j","3","0","1","152","24","79","0","5","0","1"
"138","j","3","0","1","153","35","27","1","5","0","1"
"null","null","-1","0","-1","154","88","21","0","5","1","1"
"179","k","3","0","1","155","63","49","0","5","1","1"
"35","d","3","1","1","156","23","71","1","5","0","1"
"109","f","2","1","0","157","91","37","0","5","1","1"
"163","f","4","1","2","158","23","61","1","5","0","1"
"88","d","2","1","0","159","80","35","1","5","1","1"
"43","f","4","1","2","160","37","14","0","5","0","1"
"38","k","3","0","1","161","93","83","0","5","1","1"
"9","f","2","1","0","162","41","71","0","5","0","1"
"187","j","3","0","1","163","38","10","1","6","0","1"
"191","k","0","0","-1","164","70","33","0","6","0","1"
"null","null","-1","1","-1","165","77","25","1","6","1","1"
"null","null","-1","0","-1","166","45","37","0","6","0","1"
"90","d","2","1","0","167","11","81","1","6","1","1"
"61","k","3","0","1","168","35","69","0","6","1","1"
"125","k","3","0","1","169","31","63","0","6","1","1"
"124","d","3","1","1","170","80","95","1","6","0","1"
"348","d","4","1","2","171","57","76","0","6","0","1"
"186","j","0","0","-1","172","85","26","1","6","1","1"
"80","j","3","0","1","173","55","81","1","6","0","1"
"200","f","2","1","0","174","58","6","0","6","1","1"
"311","f","2","1","0","175","36","3","1","6","1","1"
"149","j","0","0","-1","176","21","3","0","6","1","1"
"1","j","0","0","-1","177","3","32","0","6","1","1"
"186","j","3","0","1","178","56","31","0","6","0","1"
"206","f","3","1","1","179","34","4","1","6","0","1"
"18","f","3","1","1","180","58","27","1","6","1","1"
"389","f","3","1","1","181","39","36","1","6","0","1"
"342","f","2","1","0","182","44","23","0","6","0","1"
"1160","f","2","1","0","183","62","80","1","7","0","1"
"174","f","3","1","1","184","69","64","1","7","0","1"
"32","f","2","1","0","185","14","69","0","7","1","1"
"9","j","3","0","1","186","40","32","1","7","0","1"
"196","j","0","0","-1","187","96","12","1","7","1","1"
"11","j","0","0","-1","188","45","80","1","7","1","1"
"97","f","4","1","2","189","54","57","0","7","1","1"
"58","d","3","1","1","190","76","59","1","7","1","1"
"125","k","0","0","-1","191","73","96","0","7","0","1"
"null","null","-1","0","-1","192","16","7","1","7","0","1"
"153","j","3","0","1","193","47","85","0","7","0","1"
"46","k","0","0","-1","194","58","85","0","7","0","1"
"147","f","2","1","0","195","90","25","0","7","1","1"
"250","j","0","0","-1","196","44","83","1","7","1","1"
"581","f","2","1","0","197","14","5","1","7","0","1"
"267","j","3","0","1","198","16","18","0","7","0","1"
"75","d","3","1","1","199","23","81","0","7","1","1"
"296","f","2","1","0","200","26","37","1","7","1","1"
"138","j","3","0","1","201","79","27","0","7","0","1"
"232","f","4","1","2","202","90","74","0","7","1","1"
"54","d","2","1","0","203","16","43","1","8","0","1"
"46","k","0","0","-1","204","57","26","0","8","0","1"
"120","f","2","1","0","205","19","2","1","8","1","1"
"25","d","3","1","1","206","96","65","0","8","0","1"
"129","j","3","0","1","207","78","86","0","8","0","1"
"157","k","3","0","1","208","55","65","0","8","1","1"
"334","f","4","1","2","209","76","87","0","8","0","1"
"7","f","4","1","2","210","5","9","0","8","1","1"
"60","f","2","1","0","211","4","68","0","8","0","1"
"224","j","0","0","-1","212","31","29","0","8","1","1"
"85","k","0","0","-1","213","48","32","1","8","0","1"
"86","j","0","0","-1","214","45","75","1","8","1","1"
"35","j","0","0","-1","215","96","8","1","8","1","1"
"194","j","3","0","1","216","45","61","1","8","0","1"
"215","j","0","0","-1","217","20","32","1","8","1","1"
"0","j","0","0","-1","218","21","80","0","8","1","1"
"6","d","2","1","0","219","10","32","0","8","1","1"
"148","f","2","1","0","220","61","73","1","8","1","1"
"126","f","4","1","2","221","20","52","1","8","0","1"
"85","f","3","1","1","222","96","13","1","8","0","1"
"216","d","4","1","2","223","99","89","1","9","0","1"
"248","f","2","1","0","224","50","51","1","9","1","1"
"212","j","0","0","-1","225","2","65","1","9","1","1"
"271","j","3","0","1","226","25","93","0","9","0","1"
"289","j","3","0","1","227","92","43","0","9","0","1"
"301","f","2","1","0","228","83","33","0","9","0","1"
"42","j","0","0","-1","229","93","91","1","9","1","1"
"224","j","3","0","1","230","54","58","1","9","0","1"
"157","j","0","0","-1","231","26","67","0","9","1","1"
"233","j","3","0","1","232","14","28","0","9","0","1"
"84","j","0","0","-1","233","54","47","1","9","1","1"
"646","j","0","0","-1","234","1","38","1","9","1","1"
"79","d","2","1","0","235","51","7","0","9","1","1"
"225","d","2","1","0","236","55","6","0","9","0","1"
"423","f","2","1","0","237","58","66","1","9","0","1"
"371","j","3","0","1","238","15","25","0","9","0","1"
"53","d","2","1","0","239","5","61","0","9","1","1"
"1791","d","2","1","0","240","91","37","1","9","0","1"
"342","f","2","1","0","241","46","1","0","9","1","1"
"139","f","3","1","1","242","49","12","1","9","1","1"
