"rt","key_press","reward","type","marble","trial_num","stim_1","stim_2","change_index","block","changed","marble_set"
"13908","f","2","1","0","1","6","49","0","0","0","1"
"2096","f","3","1","1","2","32","75","0","0","0","1"
"216","d","4","1","2","3","18","76","0","0","0","1"
"319","f","2","1","0","4","3","51","0","0","0","1"
"1194","f","3","1","1","5","64","76","0","0","0","1"
"933","d","2","1","0","6","78","73","0","0","0","1"
"806","f","4","1","2","7","8","41","0","0","0","1"
"976","f","3","1","1","8","78","23","0","0","0","1"
"1433","d","2","1","0","9","73","74","0","0","0","1"
"695","f","2","1","0","10","4","35","0","0","0","1"
"619","d","4","1","2","11","74","95","0","0","0","1"
"582","d","2","1","0","12","68","90","0","0","0","1"
"580","d","3","1","1","13","12","53","0","0","0","1"
"675","f","3","1","1","14","23","56","0","0","0","1"
"678","d","2","1","0","15","49","9","0","0","0","1"
"2155","f","2","1","0","16","62","18","0","0","0","1"
"1078","d","2","1","0","17","16","84","0","0","0","1"
"557","d","2","1","0","18","8","95","0","0","0","1"
"676","f","2","1","0","19","38","65","0","0","0","1"
"569","d","4","1","2","20","13","3","0","0","0","1"
"6966","k","0","0","-1","21","35","72","1","0","0","1"
"2549","j","0","0","-1","22","47","16","1","0","1","1"
"1908","k","0","0","-1","23","17","75","0","0","0","1"
"658","k","0","0","-1","24","29","55","1","0","0","1"
"697","k","0","0","-1","25","89","40","1","0","0","1"
"3182","k","3","0","1","26","54","57","1","0","1","1"
"1639","k","3","0","1","27","16","94","0","0","1","1"
"1892","j","0","0","-1","28","50","56","1","0","1","1"
"1767","k","0","0","-1","29","20","60","0","0","0","1"
"1842","k","3","0","1","30","45","65","1","0","1","1"
"1779","k","0","0","-1","31","10","44","1","0","0","1"
"1527","k","3","0","1","32","99","46","0","0","1","1"
"795","k","0","0","-1","33","57","15","0","0","0","1"
"1114","j","0","0","-1","34","86","36","0","0","1","1"
"1506","j","3","0","1","35","84","21","0","0","0","1"
"832","j","0","0","-1","36","97","76","1","0","1","1"
"1524","k","0","0","-1","37","40","9","0","0","0","1"
"802","j","3","0","1","38","31","6","0","0","0","1"
"1561","k","0","0","-1","39","46","59","0","0","0","1"
"1341","k","3","0","1","40","22","27","1","0","1","1"
"52165","","","","","","","","","","",""
"null","null","-1","0","-1","42","33","77","0","0","1","1"
"null","null","-1","0","-1","43","46","97","1","0","1","1"
"371","f","3","1","1","44","35","33","1","0","1","1"
"582","f","2","1","0","45","83","18","0","0","0","1"
"null","null","-1","0","-1","46","90","39","0","0","0","1"
"null","null","-1","0","-1","47","15","21","1","0","1","1"
"null","null","-1","0","-1","48","30","0","1","0","0","1"
"910","k","0","0","-1","49","58","66","0","0","0","1"
"1483","f","2","1","0","50","8","76","0","0","1","1"
"null","null","-1","0","-1","51","8","90","0","0","0","1"
"1296","f","3","1","1","52","55","97","1","0","1","1"
"1096","f","2","1","0","53","52","41","1","0","1","1"
"1038","d","4","1","2","54","99","11","1","0","0","1"
"1850","j","0","0","-1","55","94","12","1","0","1","1"
"1705","j","3","0","1","56","45","22","0","0","0","1"
"907","f","3","1","1","57","47","10","0","0","0","1"
"null","null","-1","1","-1","58","65","55","0","0","1","1"
"1633","f","4","1","2","59","76","77","1","0","0","1"
"1481","j","3","0","1","60","93","54","1","0","0","1"
"1052","f","3","1","1","61","87","56","0","0","1","1"
"1061","k","3","0","1","62","21","64","0","1","1","1"
"1352","j","3","0","1","63","48","6","0","1","0","1"
"1236","d","3","1","1","64","36","63","1","1","1","1"
"1545","j","3","0","1","65","12","62","0","1","0","1"
"1365","k","0","0","-1","66","85","15","0","1","0","1"
"null","null","-1","1","-1","67","31","33","1","1","1","1"
"1174","j","3","0","1","68","23","11","1","1","0","1"
"1174","f","2","1","0","69","75","27","0","1","1","1"
"1264","d","2","1","0","70","49","44","1","1","1","1"
"1020","f","2","1","0","71","71","55","0","1","0","1"
"1479","k","0","0","-1","72","62","78","0","1","0","1"
"1139","j","3","0","1","73","36","95","1","1","0","1"
"964","d","3","1","1","74","24","97","1","1","1","1"
"1593","f","3","1","1","75","95","44","0","1","0","1"
"1571","j","3","0","1","76","72","24","1","1","0","1"
"925","f","2","1","0","77","1","27","1","1","1","1"
"1243","j","0","0","-1","78","88","24","1","1","1","1"
"903","f","3","1","1","79","96","66","1","1","1","1"
"801","k","0","0","-1","80","66","38","0","1","0","1"
"687","d","2","1","0","81","35","28","0","1","1","1"
"1157","j","0","0","-1","82","24","33","0","2","1","1"
"967","k","3","0","1","83","25","61","0","2","1","1"
"1641","d","2","1","0","84","91","19","1","2","1","1"
"1586","j","3","0","1","85","96","54","0","2","0","1"
"800","f","3","1","1","86","21","78","0","2","0","1"
"1517","j","0","0","-1","87","98","59","1","2","1","1"
"1144","f","2","1","0","88","29","1","0","2","1","1"
"645","k","0","0","-1","89","80","81","0","2","0","1"
"644","d","3","1","1","90","24","7","1","2","0","1"
"null","null","-1","0","-1","91","99","61","0","2","0","1"
"1436","k","3","0","1","92","71","53","1","2","1","1"
"883","d","2","1","0","93","93","91","0","2","1","1"
"1298","f","3","1","1","94","36","62","1","2","1","1"
"1702","j","3","0","1","95","88","62","1","2","0","1"
"925","f","3","1","1","96","32","67","1","2","0","1"
"1482","f","3","1","1","97","67","41","1","2","0","1"
"1370","d","2","1","0","98","7","71","1","2","0","1"
"1246","k","3","0","1","99","93","10","1","2","1","1"
"1746","k","3","0","1","100","5","72","0","2","1","1"
"656","d","2","1","0","101","37","5","0","2","0","1"
"1456","d","2","1","0","102","18","3","1","3","1","1"
"1995","d","3","1","1","103","50","63","0","3","1","1"
"1833","f","3","1","1","104","6","78","0","3","0","1"
"1030","d","2","1","0","105","35","53","1","3","1","1"
"1403","k","3","0","1","106","44","81","0","3","1","1"
"1078","j","0","0","-1","107","53","90","0","3","1","1"
"1289","k","0","0","-1","108","21","85","0","3","0","1"
"1337","k","3","0","1","109","16","17","0","3","1","1"
"1654","j","3","0","1","110","45","28","1","3","0","1"
"1446","d","4","1","2","111","53","61","0","3","1","1"
"1395","f","2","1","0","112","80","76","0","3","1","1"
"1137","d","2","1","0","113","9","57","1","3","0","1"
"1933","f","2","1","0","114","19","89","1","3","0","1"
"1342","d","2","1","0","115","80","3","1","3","1","1"
"null","null","-1","0","-1","116","67","2","0","3","0","1"
"903","k","0","0","-1","117","16","61","1","3","0","1"
"1139","j","0","0","-1","118","66","32","1","3","1","1"
"970","k","0","0","-1","119","84","66","1","3","0","1"
"1695","f","2","1","0","120","54","26","0","3","0","1"
"1293","j","3","0","1","121","14","63","1","3","0","1"
"1620","j","0","0","-1","122","69","48","1","4","1","1"
"760","f","3","1","1","123","16","38","1","4","1","1"
"1211","d","2","1","0","124","30","45","1","4","1","1"
"1119","k","0","0","-1","125","61","78","1","4","0","1"
"984","j","0","0","-1","126","81","23","0","4","1","1"
"1083","k","0","0","-1","127","47","25","1","4","0","1"
"1566","f","4","1","2","128","75","6","0","4","0","1"
"1670","k","3","0","1","129","90","64","1","4","1","1"
"825","d","2","1","0","130","80","72","1","4","1","1"
"1503","f","2","1","0","131","57","35","0","4","1","1"
"1227","f","3","1","1","132","35","85","0","4","0","1"
"1034","k","0","0","-1","133","7","88","0","4","0","1"
"1131","d","2","1","0","134","16","71","0","4","1","1"
"1199","f","3","1","1","135","43","69","0","4","0","1"
"316","f","3","1","1","136","63","20","0","4","1","1"
"1081","j","3","0","1","137","72","98","0","4","0","1"
"1999","j","3","0","1","138","21","23","1","4","0","1"
"1712","k","0","0","-1","139","69","4","1","4","0","1"
"1962","k","0","0","-1","140","98","90","0","4","0","1"
"null","null","-1","1","-1","141","91","60","1","4","1","1"
"1892","f","2","1","0","142","61","80","1","5","1","1"
"1389","k","0","0","-1","143","67","97","0","5","0","1"
"null","null","-1","1","-1","144","17","5","0","5","0","1"
"1403","k","3","0","1","145","77","76","0","5","1","1"
"null","null","-1","0","-1","146","24","34","1","5","0","1"
"1020","f","3","1","1","147","45","43","1","5","0","1"
"845","k","3","0","1","148","14","13","1","5","1","1"
"1227","j","3","0","1","149","94","23","0","5","0","1"
"1664","d","2","1","0","150","94","85","0","5","1","1"
"null","null","-1","1","-1","151","64","41","1","5","1","1"
"1809","j","3","0","1","152","67","22","1","5","0","1"
"1102","k","0","0","-1","153","65","92","1","5","0","1"
"null","null","-1","1","-1","154","71","0","0","5","1","1"
"1846","f","3","1","1","155","11","64","0","5","0","1"
"1028","j","0","0","-1","156","73","74","1","5","1","1"
"727","k","3","0","1","157","56","52","1","5","1","1"
"715","d","4","1","2","158","61","77","0","5","0","1"
"1834","k","3","0","1","159","2","58","0","5","1","1"
"1754","f","4","1","2","160","31","64","0","5","0","1"
"1580","f","2","1","0","161","72","68","1","5","1","1"
"1052","f","2","1","0","162","48","15","0","6","1","1"
"617","d","4","1","2","163","89","45","1","6","0","1"
"null","null","-1","0","-1","164","5","77","1","6","0","1"
"1232","d","4","1","2","165","13","0","0","6","0","1"
"1085","d","4","1","2","166","76","91","0","6","1","1"
"1256","f","2","1","0","167","98","4","1","6","0","1"
"1622","k","0","0","-1","168","52","60","1","6","0","1"
"1529","k","3","0","1","169","13","51","1","6","1","1"
"null","null","-1","0","-1","170","77","21","0","6","0","1"
"661","d","2","1","0","171","55","47","0","6","0","1"
"1670","k","0","0","-1","172","29","75","0","6","0","1"
"1229","d","2","1","0","173","38","24","1","6","1","1"
"1540","k","3","0","1","174","18","87","1","6","1","1"
"1192","f","3","1","1","175","72","4","1","6","1","1"
"null","null","-1","0","-1","176","52","88","0","6","1","1"
"1338","k","0","0","-1","177","91","20","0","6","0","1"
"935","j","0","0","-1","178","82","0","0","6","1","1"
"null","null","-1","1","-1","179","23","55","0","6","0","1"
"null","null","-1","1","-1","180","22","87","1","6","1","1"
"1078","k","3","0","1","181","97","98","1","6","1","1"
"1039","f","2","1","0","182","71","5","1","7","1","1"
"2261","k","0","0","-1","183","72","23","0","7","0","1"
"1405","j","0","0","-1","184","85","14","0","7","1","1"
"1276","k","3","0","1","185","15","52","0","7","1","1"
"963","j","3","0","1","186","70","81","1","7","0","1"
"1105","f","2","1","0","187","21","52","0","7","1","1"
"1037","d","2","1","0","188","91","58","1","7","0","1"
"620","f","2","1","0","189","2","74","0","7","0","1"
"554","f","2","1","0","190","70","59","1","7","1","1"
"796","d","4","1","2","191","19","51","0","7","0","1"
"862","f","4","1","2","192","13","32","0","7","0","1"
"1352","j","0","0","-1","193","8","54","1","7","1","1"
"1265","j","0","0","-1","194","24","84","1","7","1","1"
"1120","f","3","1","1","195","47","19","0","7","0","1"
"1404","j","3","0","1","196","74","87","0","7","0","1"
"null","null","-1","0","-1","197","23","10","1","7","0","1"
"null","null","-1","0","-1","198","58","8","0","7","1","1"
"1011","f","4","1","2","199","58","85","1","7","1","1"
"1124","k","0","0","-1","200","39","57","1","7","0","1"
"1157","f","2","1","0","201","65","92","1","7","1","1"
"617","d","2","1","0","202","95","70","1","8","0","1"
"1962","k","0","0","-1","203","42","36","0","8","0","1"
"795","d","2","1","0","204","31","97","0","8","1","1"
"1064","k","3","0","1","205","6","2","1","8","1","1"
"905","d","4","1","2","206","14","33","1","8","0","1"
"1380","k","3","0","1","207","77","53","0","8","1","1"
"1411","j","0","0","-1","208","92","61","1","8","1","1"
"792","d","2","1","0","209","77","47","0","8","0","1"
"1036","k","0","0","-1","210","44","94","0","8","0","1"
"1193","d","2","1","0","211","32","85","1","8","1","1"
"859","k","0","0","-1","212","44","73","0","8","0","1"
"583","j","0","0","-1","213","23","90","0","8","1","1"
"1988","f","2","1","0","214","73","97","1","8","0","1"
"1419","j","3","0","1","215","23","78","0","8","0","1"
"942","f","2","1","0","216","4","42","1","8","1","1"
"1553","k","3","0","1","217","84","6","0","8","1","1"
"681","f","3","1","1","218","34","30","1","8","0","1"
"null","null","-1","0","-1","219","11","63","0","8","1","1"
"1356","f","2","1","0","220","27","52","1","8","1","1"
"1389","f","2","1","0","221","80","45","1","8","0","1"
"null","null","-1","0","-1","222","96","71","1","9","1","1"
"null","null","-1","1","-1","223","3","31","1","9","1","1"
"null","null","-1","0","-1","224","34","70","1","9","0","1"
"1641","k","0","0","-1","225","1","90","0","9","0","1"
"1198","j","0","0","-1","226","89","13","0","9","1","1"
"1272","f","2","1","0","227","54","84","1","9","0","1"
"1281","k","0","0","-1","228","32","94","0","9","0","1"
"1129","j","0","0","-1","229","72","91","1","9","1","1"
"1659","f","4","1","2","230","41","44","1","9","0","1"
"984","f","2","1","0","231","59","86","0","9","0","1"
"1813","j","0","0","-1","232","14","68","0","9","1","1"
"1562","k","0","0","-1","233","77","89","0","9","0","1"
"1212","d","4","1","2","234","76","56","0","9","0","1"
"1087","f","3","1","1","235","30","98","1","9","0","1"
"null","null","-1","1","-1","236","83","70","1","9","1","1"
"1126","f","2","1","0","237","49","42","0","9","1","1"
"1393","d","3","1","1","238","93","60","0","9","1","1"
"1541","j","3","0","1","239","72","36","0","9","0","1"
"1610","k","3","0","1","240","1","68","1","9","1","1"
"1133","f","2","1","0","241","21","88","1","9","1","1"
