"rt","key_press","reward","type","marble","trial_num","stim_1","stim_2","change_index","block","changed","marble_set"
"1318.6000000238419","d","4","1","0","1","32","50","0","0","0","0"
"782","f","2","1","2","2","22","23","0","0","0","0"
"911.6000000238419","d","2","1","2","3","8","97","0","0","0","0"
"466.30000001192093","d","4","1","0","4","98","48","0","0","0","0"
"643.5","f","2","1","2","5","7","19","0","0","0","0"
"309.80000001192093","d","4","1","0","6","18","37","0","0","0","0"
"260.30000001192093","f","2","1","2","7","73","6","0","0","0","0"
"551.5","d","3","1","1","8","20","3","0","0","0","0"
"204.69999998807907","d","2","1","2","9","83","86","0","0","0","0"
"414.5999999642372","f","2","1","2","10","72","26","0","0","0","0"
"463.19999998807907","f","2","1","2","11","62","33","0","0","0","0"
"336.19999998807907","d","2","1","2","12","22","93","0","0","0","0"
"328.30000001192093","d","3","1","1","13","88","35","0","0","0","0"
"599.6999999880791","d","2","1","2","14","26","85","0","0","0","0"
"351.60000002384186","d","2","1","2","15","27","0","0","0","0","0"
"287.69999998807907","d","4","1","0","16","29","33","0","0","0","0"
"287.60000002384186","d","2","1","2","17","92","84","0","0","0","0"
"524.1000000238419","d","2","1","2","18","57","80","0","0","0","0"
"469.69999998807907","f","4","1","0","19","57","43","0","0","0","0"
"542.6000000238419","f","2","1","2","20","97","46","0","0","0","0"
"2007.0999999642372","k","3","0","1","21","80","64","1","0","1","0"
"1323.199999988079","k","3","0","1","22","69","90","1","0","1","0"
"847.5","j","3","0","1","23","61","79","1","0","0","0"
"1912.8999999761581","k","3","0","1","24","16","69","0","0","1","0"
"1207.199999988079","k","0","0","-1","25","13","29","1","0","0","0"
"1131.5","j","0","0","-1","26","56","58","0","0","1","0"
"1280.6000000238419","k","0","0","-1","27","74","24","1","0","0","0"
"1567","k","3","0","1","28","88","27","0","0","1","0"
"2403.7999999523163","j","0","0","-1","29","75","18","0","0","1","0"
"2599.699999988079","k","3","0","1","30","65","59","1","0","1","0"
"1787.8999999761581","k","0","0","-1","31","60","74","0","0","0","0"
"1544.5","k","3","0","1","32","54","72","1","0","1","0"
"2249.100000023842","j","0","0","-1","33","30","12","1","0","1","0"
"2499.400000035763","j","3","0","1","34","72","24","0","0","0","0"
"3678.300000011921","k","0","0","-1","35","95","21","1","0","0","0"
"2424.199999988079","j","3","0","1","36","22","5","0","0","0","0"
"1768.3999999761581","j","3","0","1","37","9","0","1","0","0","0"
"2515.600000023842","j","3","0","1","38","6","39","0","0","0","0"
"3652","k","3","0","1","39","87","8","1","0","1","0"
"4819.800000011921","j","3","0","1","40","19","59","0","0","0","0"
"18575.100000023842","","","","","","","","","","",""
"3333","","","","","","","","","","",""
"1575.5999999642372","j","3","0","1","43","45","14","0","0","0","0"
"1914.800000011921","j","0","0","-1","44","98","16","0","0","1","0"
"null","null","-1","1","-1","45","32","96","1","0","0","0"
"1782.2999999523163","d","2","1","2","46","53","83","1","0","0","0"
"1711.300000011921","j","0","0","-1","47","82","80","0","0","1","0"
"1713.1000000238419","k","3","0","1","48","53","24","0","0","1","0"
"1992.300000011921","k","0","0","-1","49","76","33","1","0","0","0"
"1342.7999999523163","d","2","1","2","50","12","85","1","0","0","0"
"1307.199999988079","k","3","0","1","51","91","31","1","0","1","0"
"980","f","2","1","2","52","22","53","1","0","1","0"
"988.1000000238419","d","2","1","2","53","46","68","1","0","1","0"
"1440.2999999523163","j","3","0","1","54","77","30","0","0","0","0"
"1702.1000000238419","j","0","0","-1","55","81","98","0","0","1","0"
"null","null","-1","0","-1","56","18","62","1","0","0","0"
"1623.699999988079","f","4","1","0","57","94","10","0","0","1","0"
"879.4000000357628","f","2","1","2","58","47","9","0","0","0","0"
"901.9000000357628","d","4","1","0","59","88","52","1","0","0","0"
"800.3999999761581","d","2","1","2","60","99","51","0","0","0","0"
"813.3000000119209","d","4","1","0","61","50","38","0","0","1","0"
"1398.699999988079","k","3","0","1","62","53","58","1","0","1","0"
"858.2000000476837","f","2","1","2","63","58","4","0","1","1","0"
"831.5","f","2","1","2","64","36","22","0","1","0","0"
"1519.5","j","0","0","-1","65","42","82","1","1","1","0"
"1875.9000000357628","k","0","0","-1","66","50","61","1","1","0","0"
"817.9000000357628","f","4","1","0","67","93","94","1","1","0","0"
"1370.199999988079","k","3","0","1","68","70","56","0","1","1","0"
"1067.9000000357628","j","3","0","1","69","81","28","1","1","0","0"
"1090.300000011921","f","3","1","1","70","14","1","1","1","0","0"
"746.3000000119209","f","4","1","0","71","7","17","1","1","0","0"
"770.8000000119209","d","2","1","2","72","68","21","1","1","1","0"
"747","d","2","1","2","73","39","79","0","1","0","0"
"1922.5","j","0","0","-1","74","27","80","0","1","1","0"
"1506.300000011921","k","0","0","-1","75","14","76","0","1","0","0"
"1049","f","2","1","2","76","58","23","1","1","1","0"
"1327.3999999761581","k","3","0","1","77","47","54","0","1","1","0"
"1691.1000000238419","k","3","0","1","78","9","93","1","1","1","0"
"772.9000000357628","f","2","1","2","79","72","57","0","1","1","0"
"null","null","-1","0","-1","80","54","23","1","1","0","0"
"694.5","f","3","1","1","81","51","80","0","1","1","0"
"1894","j","3","0","1","82","82","81","0","1","0","0"
"0.20000004768371582","d","2","1","2","83","26","90","1","2","0","0"
"1677.0999999642372","k","3","0","1","84","22","8","0","2","1","0"
"1226.9000000357628","k","3","0","1","85","22","7","0","2","1","0"
"1144.6000000238419","d","2","1","2","86","99","89","0","2","1","0"
"789.3000000119209","f","3","1","1","87","38","19","0","2","0","0"
"678.0999999642372","d","3","1","1","88","44","34","0","2","0","0"
"626.6000000238419","d","4","1","0","89","79","60","1","2","1","0"
"null","null","-1","0","-1","90","17","8","0","2","0","0"
"965.2000000476837","f","2","1","2","91","71","18","0","2","1","0"
"1302.1000000238419","k","3","0","1","92","89","30","1","2","1","0"
"1856.8999999761581","j","3","0","1","93","8","3","1","2","0","0"
"894.2000000476837","d","2","1","2","94","64","14","1","2","0","0"
"1729.6000000238419","k","3","0","1","95","69","44","0","2","1","0"
"1413.8999999761581","k","3","0","1","96","6","4","1","2","1","0"
"661.2999999523163","d","3","1","1","97","17","28","1","2","1","0"
"1375.5","k","3","0","1","98","4","85","0","2","1","0"
"1704.800000011921","k","0","0","-1","99","63","16","1","2","0","0"
"884.1000000238419","d","3","1","1","100","20","71","1","2","0","0"
"1577.8999999761581","j","3","0","1","101","23","52","0","2","0","0"
"878.5","d","4","1","0","102","84","6","1","2","0","0"
"1082.199999988079","j","3","0","1","103","24","60","1","3","0","0"
"1258.7999999523163","k","0","0","-1","104","58","95","1","3","0","0"
"648.1999999880791","d","4","1","0","105","96","55","1","3","0","0"
"830.3999999761581","d","3","1","1","106","35","74","0","3","1","0"
"1188.800000011921","k","3","0","1","107","92","8","0","3","1","0"
"1005.3000000119209","f","2","1","2","108","68","74","0","3","1","0"
"740","d","4","1","0","109","87","43","0","3","0","0"
"915","f","2","1","2","110","30","77","1","3","0","0"
"1049.7000000476837","k","3","0","1","111","92","60","0","3","1","0"
"829.3000000119209","d","2","1","2","112","15","92","1","3","1","0"
"null","null","-1","0","-1","113","32","55","1","3","1","0"
"null","null","-1","0","-1","114","84","72","0","3","1","0"
"1493.699999988079","k","0","0","-1","115","10","75","1","3","0","0"
"1111.0999999642372","d","3","1","1","116","10","31","0","3","1","0"
"1832","k","3","0","1","117","23","67","1","3","1","0"
"1350.8999999761581","f","2","1","2","118","89","73","0","3","0","0"
"731.3000000119209","d","4","1","0","119","7","38","1","3","1","0"
"1147.9000000357628","k","0","0","-1","120","71","77","1","3","0","0"
"811.3000000119209","f","3","1","1","121","70","7","0","3","0","0"
"1129.5","j","3","0","1","122","10","32","0","3","0","0"
"644.8999999761581","f","2","1","2","123","47","96","0","4","1","0"
"701.4000000357628","d","2","1","2","124","7","30","1","4","0","0"
"1386.800000011921","j","0","0","-1","125","65","36","0","4","1","0"
"1222.5999999642372","j","3","0","1","126","52","79","1","4","0","0"
"1830.5","k","3","0","1","127","52","32","0","4","1","0"
"778.6999999880791","d","2","1","2","128","50","27","0","4","0","0"
"1316.2000000476837","k","0","0","-1","129","38","80","1","4","0","0"
"1806.4000000357628","j","0","0","-1","130","34","76","0","4","1","0"
"1236.2000000476837","j","3","0","1","131","89","95","1","4","0","0"
"1212.3999999761581","j","3","0","1","132","19","25","0","4","0","0"
"834.3000000119209","d","4","1","0","133","15","35","1","4","0","0"
"1137.4000000357628","f","4","1","0","134","46","76","1","4","0","0"
"934.4000000357628","j","3","0","1","135","55","56","0","4","0","0"
"837.2999999523163","d","4","1","0","136","52","43","1","4","1","0"
"763.6000000238419","f","2","1","2","137","5","42","1","4","1","0"
"393.19999998807907","f","2","1","2","138","26","73","0","4","1","0"
"1198.199999988079","j","3","0","1","139","1","12","0","4","0","0"
"739.5","f","2","1","2","140","33","70","1","4","1","0"
"410.80000001192093","d","2","1","2","141","38","33","1","4","1","0"
"1226.0999999642372","j","0","0","-1","142","78","31","0","4","1","0"
"844.0999999642372","d","3","1","1","143","6","44","1","5","0","0"
"419.5","d","4","1","0","144","96","25","1","5","1","0"
"1118.300000011921","k","3","0","1","145","39","7","0","5","1","0"
"425.9000000357628","d","2","1","2","146","9","30","0","5","1","0"
"1009.1999999880791","k","3","0","1","147","77","9","0","5","1","0"
"1333.699999988079","f","2","1","2","148","75","93","0","5","0","0"
"1315","f","2","1","2","149","45","50","0","5","0","0"
"1026.300000011921","d","2","1","2","150","68","2","0","5","1","0"
"null","null","-1","0","-1","151","15","93","1","5","0","0"
"1140.0999999642372","d","4","1","0","152","29","94","1","5","1","0"
"710.6000000238419","d","3","1","1","153","82","24","0","5","0","0"
"1054.3999999761581","k","3","0","1","154","12","22","0","5","1","0"
"1303.0999999642372","k","0","0","-1","155","25","59","1","5","0","0"
"1128.2000000476837","k","3","0","1","156","30","66","1","5","1","0"
"860.8000000119209","f","4","1","0","157","31","14","1","5","0","0"
"1472.300000011921","j","3","0","1","158","80","52","1","5","0","0"
"1577.6000000238419","j","3","0","1","159","9","41","0","5","0","0"
"1832.800000011921","k","3","0","1","160","52","49","0","5","1","0"
"1589.5","k","3","0","1","161","49","24","1","5","1","0"
"1284.3999999761581","d","3","1","1","162","67","46","1","5","0","0"
"663.1000000238419","d","3","1","1","163","79","54","1","6","0","0"
"600","f","3","1","1","164","86","60","1","6","1","0"
"784.8000000119209","j","0","0","-1","165","34","67","0","6","1","0"
"560.3999999761581","d","4","1","0","166","49","78","1","6","1","0"
"1420.800000011921","j","0","0","-1","167","8","70","1","6","1","0"
"573.9000000357628","d","4","1","0","168","99","62","0","6","1","0"
"1400.300000011921","k","0","0","-1","169","11","70","0","6","0","0"
"782.5","f","2","1","2","170","75","32","0","6","0","0"
"857.5999999642372","f","3","1","1","171","18","67","1","6","1","0"
"1162.699999988079","k","0","0","-1","172","93","0","1","6","0","0"
"null","null","-1","0","-1","173","10","70","1","6","0","0"
"1635.4000000357628","j","3","0","1","174","43","60","0","6","0","0"
"1833.300000011921","k","0","0","-1","175","19","91","0","6","0","0"
"634.7999999523163","d","2","1","2","176","5","16","1","6","1","0"
"750","f","3","1","1","177","50","17","0","6","1","0"
"1672.0999999642372","k","3","0","1","178","85","13","0","6","1","0"
"360","d","4","1","0","179","55","71","0","6","0","0"
"1691.9000000357628","k","3","0","1","180","90","68","1","6","1","0"
"472.7000000476837","f","2","1","2","181","23","79","1","6","0","0"
"1548.1000000238419","k","0","0","-1","182","16","95","0","6","0","0"
"1517.5","k","3","0","1","183","83","97","1","7","1","0"
"1295.300000011921","k","3","0","1","184","81","68","0","7","1","0"
"1054.5","k","3","0","1","185","30","88","1","7","1","0"
"1803.6000000238419","k","3","0","1","186","80","86","0","7","1","0"
"1449.199999988079","f","2","1","2","187","11","71","0","7","0","0"
"1373","k","0","0","-1","188","53","10","1","7","0","0"
"1169.800000011921","j","3","0","1","189","93","77","1","7","0","0"
"1811.300000011921","j","3","0","1","190","76","30","0","7","0","0"
"654.7999999523163","f","2","1","2","191","72","92","1","7","0","0"
"740","f","2","1","2","192","46","57","0","7","1","0"
"981.5","k","3","0","1","193","66","55","0","7","1","0"
"1024.6000000238419","f","3","1","1","194","77","90","1","7","1","0"
"1392.800000011921","k","0","0","-1","195","9","53","1","7","0","0"
"1880.5","k","3","0","1","196","79","11","1","7","1","0"
"770.5","f","3","1","1","197","61","87","0","7","0","0"
"763.2000000476837","d","3","1","1","198","70","63","1","7","0","0"
"900.3999999761581","d","3","1","1","199","1","49","0","7","1","0"
"1419.6000000238419","d","2","1","2","200","18","23","1","7","1","0"
"827.5","d","3","1","1","201","73","37","0","7","0","0"
"615.8999999761581","d","2","1","2","202","53","15","0","7","0","0"
"1209.1000000238419","j","3","0","1","203","32","7","1","8","0","0"
"522.1999999880791","f","2","1","2","204","57","76","0","8","1","0"
"483.89999997615814","f","2","1","2","205","97","69","0","8","1","0"
"1090.800000011921","k","3","0","1","206","4","1","0","8","1","0"
"660.3000000119209","f","2","1","2","207","69","7","0","8","1","0"
"1049.5","k","3","0","1","208","72","44","0","8","1","0"
"593.1000000238419","d","3","1","1","209","87","28","0","8","0","0"
"623.5","f","3","1","1","210","56","53","1","8","0","0"
"1333.0999999642372","k","0","0","-1","211","79","30","1","8","0","0"
"464.9000000357628","d","3","1","1","212","31","12","1","8","1","0"
"766.3000000119209","f","4","1","0","213","2","64","0","8","0","0"
"null","null","-1","0","-1","214","90","42","1","8","0","0"
"744.9000000357628","f","3","1","1","215","28","84","1","8","1","0"
"1634.699999988079","k","0","0","-1","216","10","62","1","8","0","0"
"1797.4000000357628","k","0","0","-1","217","20","65","1","8","0","0"
"761.5999999642372","d","3","1","1","218","13","90","0","8","0","0"
"1683.199999988079","j","0","0","-1","219","63","64","0","8","1","0"
"1163.7999999523163","k","3","0","1","220","47","49","1","8","1","0"
"669","f","2","1","2","221","11","71","0","8","1","0"
"1979.800000011921","j","3","0","1","222","93","55","1","8","0","0"
"1375.0999999642372","j","3","0","1","223","35","16","1","9","0","0"
"1453.300000011921","k","3","0","1","224","18","43","0","9","1","0"
"829.4000000357628","d","2","1","2","225","29","39","1","9","1","0"
"1224.699999988079","j","0","0","-1","226","74","95","1","9","1","0"
"1539.7000000476837","k","0","0","-1","227","26","8","0","9","0","0"
"515.6000000238419","d","2","1","2","228","88","67","0","9","1","0"
"1057.5","j","3","0","1","229","39","26","0","9","0","0"
"786","d","3","1","1","230","10","73","1","9","1","0"
"742.1000000238419","d","2","1","2","231","10","3","1","9","0","0"
"1422.9000000357628","k","0","0","-1","232","89","60","1","9","0","0"
"902.8000000119209","f","4","1","0","233","14","17","1","9","1","0"
"846.1000000238419","d","2","1","2","234","42","30","0","9","1","0"
"546.1999999880791","d","2","1","2","235","3","21","1","9","0","0"
"954.0999999642372","f","2","1","2","236","69","73","0","9","1","0"
"1084.3999999761581","j","3","0","1","237","6","98","0","9","0","0"
"1388.8999999761581","k","3","0","1","238","2","10","0","9","1","0"
"653.7000000476837","d","3","1","1","239","46","51","0","9","0","0"
"1435.3999999761581","k","3","0","1","240","96","79","0","9","1","0"
"1240.5","j","3","0","1","241","2","71","1","9","0","0"
"792","f","4","1","0","242","59","88","1","9","0","0"
