"rt","key_press","reward","type","marble","trial_num","stim_1","stim_2","change_index","block","changed","marble_set"
"6530","f","2","1","0","1","80","55","0","0","0","4"
"2681.699999988079","f","3","1","2","2","38","67","0","0","0","4"
"1085.4000000059605","d","3","1","2","3","12","45","0","0","0","4"
"492.19999998807907","f","3","1","2","4","45","67","0","0","0","4"
"622.7999999821186","f","3","1","2","5","47","21","0","0","0","4"
"1452.4000000059605","f","2","1","0","6","15","65","0","0","0","4"
"698","f","4","1","1","7","77","17","0","0","0","4"
"567","f","3","1","2","8","65","79","0","0","0","4"
"1033.2999999821186","d","2","1","0","9","29","93","0","0","0","4"
"590.7999999821186","d","4","1","1","10","19","15","0","0","0","4"
"523.4000000059605","f","3","1","2","11","44","2","0","0","0","4"
"334.10000002384186","d","2","1","0","12","41","72","0","0","0","4"
"468.30000001192093","d","2","1","0","13","54","69","0","0","0","4"
"514.8000000119209","d","3","1","2","14","65","86","0","0","0","4"
"535.0999999940395","d","4","1","1","15","98","77","0","0","0","4"
"378.90000000596046","f","2","1","0","16","71","69","0","0","0","4"
"355.40000000596046","d","3","1","2","17","33","96","0","0","0","4"
"320","d","2","1","0","18","17","15","0","0","0","4"
"927.7000000178814","d","3","1","2","19","58","83","0","0","0","4"
"861.6999999880791","f","3","1","2","20","23","78","0","0","0","4"
"2866.5999999940395","j","3","0","2","21","13","24","0","0","0","4"
"1767.800000011921","k","3","0","2","22","64","87","0","0","1","4"
"2161.5","k","3","0","2","23","92","60","0","0","1","4"
"1620.9000000059605","k","3","0","2","24","45","29","0","0","1","4"
"1489","j","3","0","2","25","36","90","1","0","0","4"
"1071.0999999940395","j","0","0","-1","26","63","64","0","0","1","4"
"1498.5999999940395","k","3","0","2","27","56","84","0","0","1","4"
"1305.800000011921","k","3","0","2","28","15","74","0","0","1","4"
"1479.800000011921","k","3","0","2","29","15","84","1","0","1","4"
"1098.1000000238419","j","3","0","2","30","60","67","1","0","0","4"
"1232.5","j","0","0","-1","31","79","70","1","0","1","4"
"1590.4000000059605","k","0","0","-1","32","51","83","1","0","0","4"
"1500.9000000059605","j","3","0","2","33","48","87","0","0","0","4"
"1245.3999999761581","k","0","0","-1","34","65","6","1","0","0","4"
"327.40000000596046","j","0","0","-1","35","62","38","0","0","1","4"
"299.10000002384186","k","3","0","2","36","51","41","1","0","1","4"
"669","j","3","0","2","37","81","61","1","0","0","4"
"341.5","j","3","0","2","38","2","77","1","0","0","4"
"1203","k","0","0","-1","39","28","88","1","0","0","4"
"395.60000002384186","j","0","0","-1","40","9","31","1","0","1","4"
"15098.40000000596","","","","","","","","","","",""
"4282.5","","","","","","","","","","",""
"249","d","4","1","1","43","1","48","1","0","1","4"
"null","null","-1","0","-1","44","47","96","1","0","0","4"
"null","null","-1","0","-1","45","64","39","0","0","0","4"
"1954.800000011921","d","2","1","0","46","23","33","1","0","0","4"
"1011.6999999880791","d","3","1","2","47","13","66","1","0","1","4"
"null","null","-1","0","-1","48","6","49","1","0","1","4"
"481.59999999403954","d","3","1","2","49","49","5","0","0","0","4"
"1382.699999988079","j","0","0","-1","50","21","65","0","0","1","4"
"1548.699999988079","j","0","0","-1","51","90","70","1","0","1","4"
"1537.0999999940395","j","0","0","-1","52","35","60","0","0","1","4"
"629.9000000059605","f","3","1","2","53","42","74","1","0","0","4"
"904.8000000119209","d","3","1","2","54","47","0","1","0","0","4"
"1011.3000000119209","d","2","1","0","55","72","45","1","0","1","4"
"1596.0999999940395","k","0","0","-1","56","7","23","0","0","0","4"
"777","f","2","1","0","57","64","40","0","0","0","4"
"711.7000000178814","d","3","1","2","58","34","85","0","0","1","4"
"1888.0999999940395","j","0","0","-1","59","78","27","0","0","1","4"
"1585.0999999940395","k","0","0","-1","60","62","15","0","0","0","4"
"1847.9000000059605","k","3","0","2","61","85","23","1","0","1","4"
"440.59999999403954","d","4","1","1","62","40","12","0","0","0","4"
"1168.800000011921","k","0","0","-1","63","4","12","0","1","0","4"
"497.40000000596046","f","3","1","2","64","95","20","0","1","0","4"
"1167.4000000059605","d","3","1","2","65","41","73","0","1","0","4"
"1405.1000000238419","k","0","0","-1","66","82","84","0","1","0","4"
"1167.4000000059605","f","4","1","1","67","26","10","0","1","1","4"
"1680.7000000178814","j","0","0","-1","68","40","69","0","1","1","4"
"945","k","0","0","-1","69","31","57","1","1","0","4"
"386.7999999821186","f","2","1","0","70","49","46","1","1","0","4"
"1029.300000011921","f","2","1","0","71","6","31","1","1","1","4"
"559.3000000119209","f","2","1","0","72","47","75","1","1","1","4"
"1260.800000011921","j","0","0","-1","73","38","57","1","1","1","4"
"1455.2000000178814","k","3","0","2","74","22","82","0","1","1","4"
"741.5","d","2","1","0","75","84","10","0","1","0","4"
"871.7999999821186","d","2","1","0","76","20","12","1","1","0","4"
"1462.4000000059605","k","3","0","2","77","96","63","0","1","1","4"
"1374","j","0","0","-1","78","93","15","1","1","1","4"
"1124.4000000059605","k","0","0","-1","79","48","42","1","1","0","4"
"667.0999999940395","f","3","1","2","80","95","84","1","1","0","4"
"995.5999999940395","f","3","1","2","81","75","32","0","1","1","4"
"946.0999999940395","j","0","0","-1","82","24","46","1","1","1","4"
"492.5","f","2","1","0","83","12","46","1","2","1","4"
"1657.300000011921","j","3","0","2","84","47","91","1","2","0","4"
"1599.7000000178814","k","3","0","2","85","46","13","0","2","1","4"
"1189.7999999821186","j","0","0","-1","86","66","52","0","2","1","4"
"617.0999999940395","d","3","1","2","87","4","26","0","2","1","4"
"628.3000000119209","f","2","1","0","88","11","61","1","2","0","4"
"1629","j","3","0","2","89","33","1","1","2","0","4"
"584.8000000119209","f","2","1","0","90","67","41","1","2","1","4"
"494.40000000596046","f","3","1","2","91","80","23","0","2","0","4"
"310","f","2","1","0","92","49","36","1","2","1","4"
"426.40000000596046","k","0","0","-1","93","55","33","1","2","0","4"
"553.1000000238419","d","3","1","2","94","21","55","0","2","0","4"
"622.2999999821186","d","2","1","0","95","21","7","0","2","0","4"
"1257.4000000059605","k","3","0","2","96","2","4","0","2","1","4"
"1281.199999988079","k","0","0","-1","97","45","61","1","2","0","4"
"1003.2000000178814","j","3","0","2","98","43","74","1","2","0","4"
"494.90000000596046","d","3","1","2","99","48","0","0","2","1","4"
"510.69999998807907","d","3","1","2","100","63","20","0","2","1","4"
"379.09999999403954","k","0","0","-1","101","6","97","1","2","0","4"
"1156","k","3","0","2","102","53","95","0","2","1","4"
"1542.1000000238419","j","0","0","-1","103","78","32","1","3","1","4"
"null","null","-1","0","-1","104","47","9","1","3","0","4"
"1403.9000000059605","k","3","0","2","105","62","81","0","3","1","4"
"1005.5999999940395","f","2","1","0","106","19","60","1","3","1","4"
"417.90000000596046","f","3","1","2","107","6","98","1","3","0","4"
"1622.5","k","3","0","2","108","62","80","1","3","1","4"
"493.5","f","3","1","2","109","12","48","1","3","0","4"
"1083.1000000238419","k","0","0","-1","110","10","83","0","3","0","4"
"1116.699999988079","d","2","1","0","111","15","28","1","3","1","4"
"994.8000000119209","d","2","1","0","112","55","85","0","3","0","4"
"1806.2999999821186","j","3","0","2","113","88","72","0","3","0","4"
"523.3000000119209","d","2","1","0","114","72","37","0","3","1","4"
"1736.8999999761581","j","3","0","2","115","52","4","0","3","0","4"
"1575.5999999940395","f","3","1","2","116","27","30","1","3","0","4"
"1522.5","f","2","1","0","117","62","21","1","3","0","4"
"1507.300000011921","k","3","0","2","118","97","45","0","3","1","4"
"1952.5999999940395","k","3","0","2","119","96","72","0","3","1","4"
"1349.300000011921","d","2","1","0","120","83","22","0","3","1","4"
"1517.5999999940395","k","3","0","2","121","61","6","1","3","1","4"
"502.90000000596046","d","2","1","0","122","42","8","0","3","0","4"
"610","f","3","1","2","123","93","95","1","4","1","4"
"939","d","3","1","2","124","64","4","1","4","0","4"
"1086.5","d","4","1","1","125","66","59","1","4","0","4"
"1337.3999999761581","k","0","0","-1","126","91","15","0","4","0","4"
"961","d","3","1","2","127","56","6","1","4","1","4"
"1235.9000000059605","k","0","0","-1","128","80","38","0","4","0","4"
"954.5","f","2","1","0","129","97","57","1","4","0","4"
"1067","d","2","1","0","130","87","96","1","4","0","4"
"1706.9000000059605","j","0","0","-1","131","95","23","0","4","1","4"
"1195.2999999821186","d","2","1","0","132","66","23","1","4","0","4"
"1364.0999999940395","k","0","0","-1","133","28","26","1","4","0","4"
"null","null","-1","0","-1","134","74","59","0","4","1","4"
"1102.800000011921","f","3","1","2","135","35","7","0","4","1","4"
"1347.300000011921","k","3","0","2","136","49","16","0","4","1","4"
"1266.300000011921","k","0","0","-1","137","70","79","1","4","0","4"
"1257.8999999761581","j","0","0","-1","138","70","20","0","4","1","4"
"1171.7000000178814","k","3","0","2","139","75","93","0","4","1","4"
"1442.5","k","3","0","2","140","58","70","0","4","1","4"
"1065.800000011921","f","2","1","0","141","78","96","1","4","1","4"
"1053","d","3","1","2","142","17","26","0","4","0","4"
"1434.3999999761581","j","0","0","-1","143","27","54","0","5","1","4"
"1134.800000011921","d","2","1","0","144","69","28","1","5","0","4"
"1401.300000011921","k","0","0","-1","145","54","43","0","5","0","4"
"1137.9000000059605","k","0","0","-1","146","89","10","1","5","0","4"
"1749.800000011921","f","2","1","0","147","80","44","1","5","0","4"
"1192.7000000178814","f","3","1","2","148","69","31","0","5","1","4"
"973.2000000178814","f","2","1","0","149","97","67","0","5","1","4"
"1257.800000011921","f","3","1","2","150","35","22","1","5","1","4"
"1544.7000000178814","d","3","1","2","151","88","2","0","5","1","4"
"1387.8999999761581","d","2","1","0","152","16","68","1","5","0","4"
"1446.7999999821186","k","0","0","-1","153","66","40","1","5","0","4"
"1544","j","0","0","-1","154","18","16","0","5","1","4"
"1536.800000011921","d","3","1","2","155","49","12","0","5","0","4"
"998.8000000119209","d","3","1","2","156","83","42","1","5","0","4"
"1134.800000011921","k","3","0","2","157","64","14","1","5","1","4"
"null","null","-1","0","-1","158","67","78","0","5","0","4"
"1261.9000000059605","d","3","1","2","159","20","8","1","5","0","4"
"1224.0999999940395","k","3","0","2","160","2","20","0","5","1","4"
"1041.9000000059605","k","3","0","2","161","35","14","1","5","1","4"
"845.5999999940395","k","3","0","2","162","17","29","0","5","1","4"
"1314.1000000238419","k","0","0","-1","163","20","10","0","6","0","4"
"1211.699999988079","k","3","0","2","164","65","95","0","6","1","4"
"522.3000000119209","d","2","1","0","165","34","46","1","6","0","4"
"1464.0999999940395","j","0","0","-1","166","5","43","0","6","1","4"
"571.9000000059605","f","2","1","0","167","27","24","0","6","0","4"
"1282","k","0","0","-1","168","5","23","1","6","0","4"
"1517.800000011921","j","0","0","-1","169","86","43","1","6","1","4"
"716.0999999940395","k","3","0","2","170","15","59","1","6","1","4"
"391.2999999821186","f","4","1","1","171","79","14","1","6","0","4"
"773.1999999880791","d","3","1","2","172","87","15","0","6","1","4"
"1266.5","j","3","0","2","173","51","52","1","6","0","4"
"567","f","3","1","2","174","79","89","1","6","1","4"
"447.7000000178814","d","2","1","0","175","77","90","1","6","0","4"
"431.60000002384186","d","2","1","0","176","13","26","0","6","1","4"
"null","null","-1","1","-1","177","52","88","0","6","0","4"
"572.5999999940395","k","0","0","-1","178","76","83","1","6","0","4"
"882.5999999940395","d","3","1","2","179","48","28","0","6","0","4"
"1179.2999999821186","f","2","1","0","180","95","4","1","6","1","4"
"1238.4000000059605","k","3","0","2","181","81","77","0","6","1","4"
"1219.4000000059605","k","3","0","2","182","58","27","0","6","1","4"
"1209.9000000059605","k","0","0","-1","183","42","80","1","7","0","4"
"1243.5999999940395","k","0","0","-1","184","82","24","0","7","0","4"
"1127","j","3","0","2","185","62","65","0","7","0","4"
"1392","j","3","0","2","186","16","90","1","7","0","4"
"1391.5","j","3","0","2","187","5","96","0","7","0","4"
"873.3000000119209","d","2","1","0","188","4","91","0","7","0","4"
"1002.2999999821186","d","2","1","0","189","34","0","0","7","1","4"
"581.5999999940395","d","3","1","2","190","2","93","1","7","1","4"
"757.5","d","4","1","1","191","64","90","1","7","1","4"
"716","d","4","1","1","192","61","65","1","7","0","4"
"593.7000000178814","d","4","1","1","193","92","73","0","7","1","4"
"1402","j","3","0","2","194","2","6","1","7","0","4"
"1334.5999999940395","j","0","0","-1","195","36","35","1","7","1","4"
"1343.0999999940395","k","3","0","2","196","43","53","0","7","1","4"
"464.19999998807907","d","2","1","0","197","63","30","1","7","1","4"
"533.4000000059605","d","2","1","0","198","62","44","0","7","0","4"
"682","d","4","1","1","199","50","91","0","7","1","4"
"1370.7000000178814","k","3","0","2","200","44","1","0","7","1","4"
"453.90000000596046","d","4","1","1","201","43","4","1","7","0","4"
"1456.699999988079","k","3","0","2","202","7","71","1","7","1","4"
"492.30000001192093","d","4","1","1","203","41","63","1","8","1","4"
"1239.9000000059605","k","0","0","-1","204","72","33","1","8","0","4"
"1194.4000000059605","j","0","0","-1","205","54","16","0","8","1","4"
"1156.5999999940395","k","3","0","2","206","72","80","0","8","1","4"
"1174.699999988079","j","0","0","-1","207","2","62","1","8","1","4"
"820.2999999821186","d","2","1","0","208","70","97","1","8","0","4"
"854.5999999940395","d","2","1","0","209","65","25","0","8","1","4"
"1189.2999999821186","k","3","0","2","210","11","57","0","8","1","4"
"674.1999999880791","f","2","1","0","211","97","58","1","8","0","4"
"1266.2999999821186","k","3","0","2","212","97","84","0","8","1","4"
"1266","j","3","0","2","213","36","48","0","8","0","4"
"469.69999998807907","f","4","1","1","214","15","64","0","8","0","4"
"1165.5999999940395","j","3","0","2","215","6","42","0","8","0","4"
"388.59999999403954","d","3","1","2","216","88","5","0","8","1","4"
"1178","j","3","0","2","217","30","65","1","8","0","4"
"812.6999999880791","f","2","1","0","218","42","96","1","8","0","4"
"585.8000000119209","d","2","1","0","219","31","16","1","8","1","4"
"576.5999999940395","d","3","1","2","220","75","38","1","8","0","4"
"532.5","d","2","1","0","221","66","56","1","8","0","4"
"899.9000000059605","j","0","0","-1","222","33","7","0","8","1","4"
"1262","k","0","0","-1","223","74","54","1","9","0","4"
"1265.0999999940395","k","3","0","2","224","45","81","0","9","1","4"
"1777.300000011921","j","0","0","-1","225","69","66","1","9","1","4"
"1283.4000000059605","k","0","0","-1","226","38","20","0","9","0","4"
"481.7000000178814","f","2","1","0","227","65","49","1","9","0","4"
"462.69999998807907","d","4","1","1","228","29","38","1","9","1","4"
"1350.5","k","3","0","2","229","31","34","0","9","1","4"
"418","d","4","1","1","230","41","64","1","9","0","4"
"1338.4000000059605","k","3","0","2","231","64","27","0","9","1","4"
"1140.5","j","0","0","-1","232","83","96","1","9","1","4"
"586.4000000059605","d","2","1","0","233","50","81","0","9","0","4"
"1256.3999999761581","j","3","0","2","234","79","62","0","9","0","4"
"656","d","2","1","0","235","67","92","1","9","0","4"
"420.40000000596046","d","3","1","2","236","9","5","1","9","0","4"
"1267.4000000059605","j","3","0","2","237","53","56","0","9","0","4"
"977","f","2","1","0","238","45","92","0","9","1","4"
"910.7000000178814","d","3","1","2","239","98","0","0","9","1","4"
"1379.2999999821186","k","3","0","2","240","86","51","1","9","1","4"
"763.7000000178814","f","2","1","0","241","91","58","0","9","1","4"
"449.90000000596046","f","3","1","2","242","3","57","1","9","0","4"
