"rt","key_press","reward","type","marble","trial_num","stim_1","stim_2","change_index","block","changed","marble_set"
"7098","d","3","1","1","1","94","91","0","0","0","1"
"1099.9000005722046","f","2","1","0","2","72","89","0","0","0","1"
"621.8000001907349","f","3","1","1","3","15","67","0","0","0","1"
"773.6000003814697","d","4","1","2","4","13","36","0","0","0","1"
"676.1000003814697","d","3","1","1","5","98","91","0","0","0","1"
"835.6999998092651","d","4","1","2","6","10","72","0","0","0","1"
"721.8999996185303","f","3","1","1","7","76","62","0","0","0","1"
"636.3000001907349","d","2","1","0","8","66","31","0","0","0","1"
"855.8999996185303","d","3","1","1","9","1","49","0","0","0","1"
"605","d","3","1","1","10","20","39","0","0","0","1"
"699.3000001907349","d","3","1","1","11","49","54","0","0","0","1"
"616.3000001907349","f","3","1","1","12","16","75","0","0","0","1"
"725.6999998092651","d","2","1","0","13","15","73","0","0","0","1"
"690.4000005722046","f","2","1","0","14","2","96","0","0","0","1"
"709.3999996185303","d","3","1","1","15","58","5","0","0","0","1"
"684.6999998092651","f","2","1","0","16","5","36","0","0","0","1"
"620.5","f","4","1","2","17","66","9","0","0","0","1"
"637.1999998092651","d","4","1","2","18","9","93","0","0","0","1"
"532.3999996185303","d","2","1","0","19","79","76","0","0","0","1"
"330.5999994277954","d","2","1","0","20","48","45","0","0","0","1"
"509.8999996185303","k","3","0","1","21","42","14","0","0","1","1"
"738.6999998092651","j","3","0","1","22","97","72","0","0","0","1"
"1488.2000007629395","j","0","0","-1","23","15","82","0","0","1","1"
"1270.1999998092651","k","3","0","1","24","64","79","0","0","1","1"
"1762.9000005722046","j","0","0","-1","25","28","0","1","0","1","1"
"1364.3999996185303","k","3","0","1","26","96","83","0","0","1","1"
"6100","j","3","0","1","27","77","33","1","0","0","1"
"1835.8000001907349","j","3","0","1","28","60","57","0","0","0","1"
"1494.5999994277954","k","3","0","1","29","90","11","0","0","1","1"
"1131.8000001907349","j","0","0","-1","30","31","32","0","0","1","1"
"1728.3999996185303","k","0","0","-1","31","20","92","1","0","0","1"
"706.8000001907349","j","3","0","1","32","3","49","0","0","0","1"
"1039.1000003814697","k","3","0","1","33","72","95","1","0","1","1"
"1190.4000005722046","j","3","0","1","34","66","23","0","0","0","1"
"1360.9000005722046","j","0","0","-1","35","35","94","1","0","1","1"
"1120.1000003814697","k","0","0","-1","36","65","80","1","0","0","1"
"963.5","k","0","0","-1","37","73","43","1","0","0","1"
"553.3000001907349","j","3","0","1","38","4","78","1","0","0","1"
"705.4000005722046","k","0","0","-1","39","59","42","1","0","0","1"
"430.3999996185303","j","0","0","-1","40","57","10","1","0","1","1"
"12154.199999809265","","","","","","","","","","",""
"11824.699999809265","","","","","","","","","","",""
"3546.800000190735","","","","","","","","","","",""
"3330.1000003814697","","","","","","","","","","",""
"null","null","-1","0","-1","45","84","33","1","0","1","1"
"989.5","j","3","0","1","46","16","65","0","0","0","1"
"null","null","-1","1","-1","47","48","53","0","0","1","1"
"1806.7999992370605","d","4","1","2","48","43","27","0","0","0","1"
"1284.5","j","0","0","-1","49","26","19","1","0","1","1"
"1069.6999998092651","k","0","0","-1","50","58","68","1","0","0","1"
"1345.3000001907349","d","2","1","0","51","6","47","0","0","0","1"
"1633.1000003814697","f","4","1","2","52","20","75","1","0","0","1"
"1537.6999998092651","f","4","1","2","53","97","74","0","0","0","1"
"1467.8000001907349","f","3","1","1","54","37","32","0","0","1","1"
"227.69999980926514","d","4","1","2","55","49","34","1","0","1","1"
"1322.4000005722046","j","0","0","-1","56","90","44","0","0","1","1"
"954.5","j","0","0","-1","57","27","52","1","0","1","1"
"828","k","0","0","-1","58","8","35","1","0","0","1"
"867","j","3","0","1","59","48","77","0","0","0","1"
"783.6000003814697","j","0","0","-1","60","73","23","0","0","1","1"
"1210.3000001907349","j","3","0","1","61","53","91","1","0","0","1"
"1827.4000005722046","f","3","1","1","62","8","66","1","0","1","1"
"1438.3000001907349","f","3","1","1","63","73","88","1","0","1","1"
"838.6999998092651","f","4","1","2","64","65","33","0","0","0","1"
"1300.8999996185303","j","3","0","1","65","81","9","1","1","0","1"
"1575.9000005722046","f","2","1","0","66","2","40","0","1","1","1"
"1509.8999996185303","d","2","1","0","67","18","36","1","1","0","1"
"938.6999998092651","f","4","1","2","68","11","38","1","1","1","1"
"540","d","4","1","2","69","66","93","1","1","1","1"
"1625.3000001907349","j","3","0","1","70","28","59","0","1","0","1"
"1484.6000003814697","f","2","1","0","71","49","66","1","1","0","1"
"1190.6999998092651","j","0","0","-1","72","85","11","0","1","1","1"
"1056.6999998092651","d","3","1","1","73","25","11","1","1","1","1"
"1472.6000003814697","j","3","0","1","74","99","48","0","1","0","1"
"1015.6999998092651","d","3","1","1","75","21","95","0","1","1","1"
"1087.6000003814697","k","0","0","-1","76","53","77","1","1","0","1"
"902.1999998092651","f","3","1","1","77","82","97","1","1","0","1"
"1430.7000007629395","d","2","1","0","78","90","27","1","1","0","1"
"1039.8999996185303","j","3","0","1","79","14","22","0","1","0","1"
"1395.1999998092651","d","2","1","0","80","5","62","0","1","1","1"
"902","j","0","0","-1","81","58","21","0","1","1","1"
"null","null","-1","0","-1","82","45","6","1","1","0","1"
"1112.8999996185303","j","0","0","-1","83","32","34","0","1","1","1"
"1621.6999998092651","j","0","0","-1","84","84","21","0","1","1","1"
"1188.8000001907349","j","0","0","-1","85","96","62","0","2","1","1"
"1518.7999992370605","d","2","1","0","86","60","9","1","2","0","1"
"1378.2999992370605","k","0","0","-1","87","97","64","1","2","0","1"
"1910.3999996185303","f","2","1","0","88","48","3","1","2","1","1"
"1221.8999996185303","j","3","0","1","89","21","74","0","2","0","1"
"1095.1999998092651","f","2","1","0","90","54","2","0","2","0","1"
"1164.4000005722046","d","2","1","0","91","57","15","1","2","0","1"
"null","null","-1","0","-1","92","36","73","0","2","1","1"
"null","null","-1","1","-1","93","26","56","0","2","0","1"
"1060.3000001907349","j","0","0","-1","94","92","44","1","2","1","1"
"1183.8000001907349","f","2","1","0","95","16","85","1","2","1","1"
"1241.5","j","3","0","1","96","69","84","0","2","0","1"
"1299.1000003814697","d","3","1","1","97","80","64","0","2","0","1"
"1236.8000001907349","j","0","0","-1","98","51","84","1","2","1","1"
"1181.8000001907349","j","3","0","1","99","19","37","1","2","0","1"
"936.7999992370605","d","2","1","0","100","10","86","0","2","1","1"
"1350.8999996185303","j","3","0","1","101","48","5","1","2","0","1"
"1130.6999998092651","d","3","1","1","102","47","25","1","2","1","1"
"1129.5","j","0","0","-1","103","51","91","0","2","1","1"
"972.1000003814697","f","2","1","0","104","26","6","0","2","1","1"
"1024.5","d","2","1","0","105","2","51","0","3","0","1"
"971.4000005722046","j","3","0","1","106","92","25","1","3","0","1"
"848.5","d","4","1","2","107","35","23","0","3","0","1"
"1060.5999994277954","j","3","0","1","108","17","15","0","3","0","1"
"894.8999996185303","f","3","1","1","109","92","52","0","3","0","1"
"1637.2000007629395","d","3","1","1","110","1","73","0","3","0","1"
"null","null","-1","1","-1","111","77","86","1","3","1","1"
"1139.8999996185303","d","2","1","0","112","36","25","0","3","1","1"
"1817.1000003814697","k","3","0","1","113","26","80","0","3","1","1"
"1403.3000001907349","j","0","0","-1","114","88","22","0","3","1","1"
"1223.7000007629395","j","0","0","-1","115","82","65","1","3","1","1"
"null","null","-1","1","-1","116","89","10","1","3","0","1"
"1132.1999998092651","j","3","0","1","117","90","31","1","3","0","1"
"883.8000001907349","d","4","1","2","118","74","78","1","3","1","1"
"1111","k","0","0","-1","119","6","21","1","3","0","1"
"660","d","3","1","1","120","88","70","1","3","1","1"
"589","j","0","0","-1","121","11","62","0","3","1","1"
"1070.1000003814697","k","0","0","-1","122","5","20","1","3","0","1"
"940.6999998092651","f","3","1","1","123","11","95","0","3","1","1"
"1170.1000003814697","j","0","0","-1","124","76","19","1","3","1","1"
"null","null","-1","0","-1","125","30","27","1","4","0","1"
"946.4000005722046","k","3","0","1","126","24","11","1","4","1","1"
"1059","d","3","1","1","127","35","86","0","4","1","1"
"1179.8000001907349","f","2","1","0","128","36","52","1","4","1","1"
"1376.1999998092651","f","2","1","0","129","66","85","1","4","1","1"
"920.1000003814697","j","3","0","1","130","26","8","0","4","0","1"
"1002.8000001907349","j","0","0","-1","131","12","30","1","4","1","1"
"1087.1000003814697","j","0","0","-1","132","52","39","1","4","1","1"
"1063.1000003814697","j","3","0","1","133","33","36","0","4","0","1"
"null","null","-1","1","-1","134","49","6","0","4","1","1"
"990.8000001907349","f","2","1","0","135","86","21","1","4","0","1"
"1683.9000005722046","d","4","1","2","136","61","49","0","4","0","1"
"1093.8999996185303","d","2","1","0","137","22","23","1","4","1","1"
"1047.8000001907349","k","0","0","-1","138","71","50","0","4","0","1"
"1047.0999994277954","k","0","0","-1","139","96","18","0","4","0","1"
"65.80000019073486","f","2","1","0","140","16","85","1","4","1","1"
"1540.8999996185303","d","2","1","0","141","45","86","1","4","0","1"
"1217.5","f","2","1","0","142","47","11","0","4","0","1"
"1022.6999998092651","k","0","0","-1","143","71","61","0","4","0","1"
"522.1000003814697","k","3","0","1","144","67","82","0","4","1","1"
"1414.9000005722046","d","4","1","2","145","29","28","0","5","0","1"
"1188.3000001907349","j","3","0","1","146","97","53","1","5","0","1"
"934.2000007629395","f","2","1","0","147","90","14","0","5","0","1"
"1027.9000005722046","j","3","0","1","148","57","78","0","5","0","1"
"1086.5","d","3","1","1","149","7","70","1","5","1","1"
"1150.0999994277954","k","3","0","1","150","93","2","1","5","1","1"
"952.9000005722046","d","2","1","0","151","41","75","1","5","0","1"
"1491.6999998092651","f","3","1","1","152","96","54","1","5","1","1"
"1310.6000003814697","j","0","0","-1","153","31","5","0","5","1","1"
"880.8000001907349","f","4","1","2","154","71","82","1","5","0","1"
"1382.0999994277954","k","3","0","1","155","70","6","0","5","1","1"
"922.8000001907349","f","3","1","1","156","27","20","0","5","1","1"
"1810.1999998092651","f","4","1","2","157","80","26","1","5","0","1"
"1663.1999998092651","j","0","0","-1","158","88","11","1","5","1","1"
"1007.5999994277954","d","2","1","0","159","53","79","0","5","0","1"
"null","null","-1","0","-1","160","78","48","0","5","1","1"
"1033.5","f","2","1","0","161","76","9","1","5","1","1"
"1180.5","j","3","0","1","162","72","61","0","5","0","1"
"1381.8000001907349","j","0","0","-1","163","75","18","0","5","1","1"
"1369.1999998092651","k","0","0","-1","164","72","11","1","5","0","1"
"1347.3000001907349","d","2","1","0","165","71","65","0","6","1","1"
"1785.6999998092651","d","3","1","1","166","39","84","1","6","0","1"
"1221.2000007629395","j","0","0","-1","167","90","20","1","6","1","1"
"1311.1999998092651","d","3","1","1","168","22","12","1","6","0","1"
"1330.3999996185303","j","3","0","1","169","12","90","0","6","0","1"
"1334.3999996185303","j","3","0","1","170","69","82","0","6","0","1"
"null","null","-1","1","-1","171","67","4","1","6","0","1"
"1545.6999998092651","d","3","1","1","172","84","44","1","6","0","1"
"1415.5","j","0","0","-1","173","42","72","1","6","1","1"
"1340.6999998092651","d","2","1","0","174","32","46","0","6","1","1"
"1529.9000005722046","j","0","0","-1","175","99","2","1","6","1","1"
"1509.3000001907349","k","0","0","-1","176","61","93","1","6","0","1"
"1537.1000003814697","j","0","0","-1","177","82","63","0","6","1","1"
"1291.7000007629395","j","0","0","-1","178","86","1","1","6","1","1"
"1071.4000005722046","d","2","1","0","179","86","26","1","6","1","1"
"1314.1000003814697","f","3","1","1","180","10","56","0","6","0","1"
"1205.8999996185303","d","2","1","0","181","81","73","0","6","1","1"
"null","null","-1","0","-1","182","73","96","0","6","0","1"
"1603.2000007629395","j","3","0","1","183","9","36","0","6","0","1"
"528.5999994277954","d","4","1","2","184","35","50","0","6","1","1"
"1093.6000003814697","j","3","0","1","185","69","94","1","7","0","1"
"855.8000001907349","f","2","1","0","186","93","15","1","7","1","1"
"1082.6999998092651","j","3","0","1","187","67","41","1","7","0","1"
"698.8000001907349","d","2","1","0","188","10","62","1","7","0","1"
"null","null","-1","1","-1","189","81","38","0","7","1","1"
"547.0999994277954","j","3","0","1","190","49","14","0","7","0","1"
"1231.6999998092651","j","0","0","-1","191","58","3","0","7","1","1"
"1250.5999994277954","j","0","0","-1","192","53","25","0","7","1","1"
"null","null","-1","1","-1","193","34","82","1","7","1","1"
"1007.5","j","3","0","1","194","76","4","1","7","0","1"
"1220.3000001907349","d","2","1","0","195","12","28","0","7","0","1"
"884","f","3","1","1","196","14","1","0","7","1","1"
"796.5","d","2","1","0","197","67","36","1","7","0","1"
"1121.8000001907349","j","0","0","-1","198","23","71","0","7","1","1"
"1692","d","4","1","2","199","60","0","1","7","0","1"
"990.5","f","3","1","1","200","22","83","0","7","0","1"
"1668.6999998092651","d","2","1","0","201","68","78","1","7","1","1"
"1704.3000001907349","j","3","0","1","202","68","64","1","7","0","1"
"1871.1999998092651","j","0","0","-1","203","61","14","0","7","1","1"
"1090.3000001907349","j","0","0","-1","204","88","38","0","7","1","1"
"1101.5","d","3","1","1","205","10","17","1","8","0","1"
"1356.3999996185303","d","2","1","0","206","7","94","0","8","1","1"
"1028.2000007629395","j","3","0","1","207","58","47","1","8","0","1"
"1656.9000005722046","j","0","0","-1","208","80","48","0","8","1","1"
"1060.8000001907349","j","0","0","-1","209","4","73","0","8","1","1"
"1286.1000003814697","f","2","1","0","210","58","92","1","8","1","1"
"1158.6000003814697","d","3","1","1","211","53","91","1","8","1","1"
"996.3000001907349","f","2","1","0","212","94","62","1","8","0","1"
"1180.1999998092651","d","2","1","0","213","71","64","0","8","0","1"
"1376.6000003814697","d","3","1","1","214","69","30","0","8","0","1"
"1647.5999994277954","j","3","0","1","215","30","2","1","8","0","1"
"null","null","-1","1","-1","216","97","11","1","8","1","1"
"962.3000001907349","j","3","0","1","217","7","47","0","8","0","1"
"840.5","j","0","0","-1","218","31","47","0","8","1","1"
"1730.0999994277954","d","3","1","1","219","54","97","0","8","0","1"
"1268.5999994277954","k","0","0","-1","220","74","27","0","8","0","1"
"1387.8000001907349","j","3","0","1","221","30","10","0","8","0","1"
"1306.4000005722046","j","0","0","-1","222","94","78","1","8","1","1"
"1554.8999996185303","d","2","1","0","223","52","19","1","8","1","1"
"1194","j","0","0","-1","224","70","11","1","8","1","1"
"1336.5","d","2","1","0","225","79","54","1","9","0","1"
"1372.8000001907349","f","2","1","0","226","80","91","0","9","1","1"
"1957.4000005722046","d","3","1","1","227","15","30","1","9","1","1"
"1370.6000003814697","j","0","0","-1","228","41","10","1","9","1","1"
"1866.5","k","0","0","-1","229","77","1","1","9","0","1"
"1057","f","2","1","0","230","97","34","0","9","1","1"
"1249.8000001907349","d","4","1","2","231","10","60","0","9","0","1"
"1421","d","3","1","1","232","63","67","0","9","0","1"
"1090.2000007629395","f","4","1","2","233","35","41","0","9","0","1"
"1202.6999998092651","j","0","0","-1","234","18","95","0","9","1","1"
"1385.8999996185303","d","3","1","1","235","63","97","1","9","0","1"
"null","null","-1","1","-1","236","20","88","0","9","1","1"
"null","null","-1","0","-1","237","28","9","1","9","1","1"
"1544.8000001907349","j","0","0","-1","238","25","31","1","9","1","1"
"1402.5","f","2","1","0","239","77","53","1","9","0","1"
"909.6000003814697","j","3","0","1","240","94","89","0","9","0","1"
"null","null","-1","0","-1","241","60","84","0","9","1","1"
"null","null","-1","0","-1","242","7","26","1","9","1","1"
"905.5","j","3","0","1","243","46","23","1","9","0","1"
"1650","j","3","0","1","244","74","14","0","9","0","1"
