"rt","key_press","reward","color_reward_index","type","trial_num","stim_1","stim_2","new_stim","change_index","block","changed","marble_set"
"4334.099999904633","d","28","0","1","1","23","56","5","0","0","0","5"
"745.7000000476837","f","27","0","1","2","82","62","74","0","0","0","5"
"1078.5","d","26","0","1","3","5","92","61","0","0","0","5"
"585","f","27","0","1","4","87","18","52","0","0","0","5"
"877.0999999046326","d","28","0","1","5","12","63","4","0","0","0","5"
"566.8999998569489","d","26","0","1","6","80","93","67","0","0","0","5"
"574.2000000476837","d","27","0","1","7","83","19","23","0","0","0","5"
"419.59999990463257","d","27","0","1","8","68","79","92","0","0","0","5"
"358.19999980926514","d","30","0","1","9","3","2","85","0","0","0","5"
"479","d","28","0","1","10","4","79","56","0","0","0","5"
"345.5","d","31","0","1","11","14","72","1","0","0","0","5"
"1040.5","d","30","0","1","12","3","28","96","0","0","0","5"
"395.40000009536743","d","28","0","1","13","26","23","24","0","0","0","5"
"566.2000000476837","d","26","0","1","14","86","94","4","0","0","0","5"
"443.09999990463257","d","28","0","1","15","73","94","12","0","0","0","5"
"573.2999999523163","d","32","0","1","16","50","7","48","0","0","0","5"
"448.7999999523163","d","27","0","1","17","21","9","72","0","0","0","5"
"292.40000009536743","f","27","0","1","18","75","81","92","0","0","0","5"
"261","d","28","0","1","19","44","24","63","0","0","0","5"
"384.2000000476837","d","32","0","1","20","32","86","11","0","0","0","5"
"2068.2999999523163","j","0","0","0","21","33","2","39","0","0","1","5"
"227.29999995231628","k","0","0","0","22","17","57","29","1","0","0","5"
"402.30000019073486","k","0","0","0","23","57","93","1","1","0","0","5"
"499.2000000476837","j","0","0","0","24","2","79","58","1","0","1","5"
"446.39999985694885","j","0","0","0","25","36","28","34","0","0","1","5"
"390.90000009536743","j","30","0","0","26","43","71","8","1","0","0","5"
"385","j","30","0","0","27","23","37","11","1","0","0","5"
"556.1000001430511","j","0","0","0","28","78","80","28","1","0","1","5"
"565.2000000476837","j","30","0","0","29","45","8","80","0","0","0","5"
"279.19999980926514","j","30","0","0","30","92","28","78","1","0","0","5"
"264.2000000476837","j","30","0","0","31","11","15","79","0","0","0","5"
"305","j","30","0","0","32","11","27","0","1","0","0","5"
"299.30000019073486","j","0","0","0","33","4","77","10","0","0","1","5"
"399.89999985694885","j","0","0","0","34","2","12","43","1","0","1","5"
"320.2000000476837","j","0","0","0","35","77","86","18","1","0","1","5"
"235","j","0","0","0","36","1","42","90","0","0","1","5"
"42.5","j","0","0","0","37","62","64","81","0","0","1","5"
"485.80000019073486","j","30","0","0","38","25","7","45","0","0","0","5"
"348.7000000476837","j","30","0","0","39","36","52","23","1","0","0","5"
"298.7999999523163","j","0","0","0","40","35","20","71","0","0","1","5"
"14770.200000047684","","","","","","","","","","","",""
"7631.300000190735","","","","","","","","","","","",""
"3896.2999999523163","","","","","","","","","","","",""
"7049.400000095367","","","","","","","","","","","",""
"3009.5","","","","","","","","","","","",""
"3594.600000143051","","","","","","","","","","","",""
"7583.600000143051","","","","","","","","","","","",""
"3896.2999999523163","","","","","","","","","","","",""
"4843.200000047684","","","","","","","","","","","",""
"2265.0999999046326","","","","","","","","","","","",""
"null","null","-1","1","0","51","64","94","7","1","0","1","5"
"1814.7000000476837","d","29","1","1","52","35","45","82","0","0","0","5"
"1432.4000000953674","j","0","1","0","53","72","83","15","1","0","1","5"
"693.3999998569489","j","0","1","0","54","71","63","81","1","0","1","5"
"917.6000001430511","d","30","1","1","55","7","5","23","0","0","0","5"
"321.2000000476837","j","30","1","0","56","97","50","46","1","0","0","5"
"855.1999998092651","j","0","1","0","57","63","98","22","1","0","1","5"
"32.799999952316284","j","30","1","0","58","82","13","31","0","0","0","5"
"603.8999998569489","d","28","1","1","59","30","0","71","1","0","1","5"
"363.5","d","33","1","1","60","32","24","95","1","0","1","5"
"226.5","j","0","1","0","61","35","49","69","0","0","1","5"
"326.5","d","30","1","1","62","77","29","3","0","0","0","5"
"374.90000009536743","j","0","1","0","63","43","23","55","0","0","1","5"
"1484.2000000476837","d","29","1","1","64","8","6","30","0","0","1","5"
"null","null","-1","1","1","65","97","32","25","1","0","0","5"
"null","null","-1","1","1","66","18","4","30","0","0","0","5"
"1309.0999999046326","d","29","1","1","67","12","5","14","1","0","0","5"
"null","null","-1","1","1","68","71","56","32","0","0","1","5"
"1042.9000000953674","j","30","1","0","69","83","37","55","0","0","0","5"
"1768","j","30","1","0","70","65","95","79","1","0","0","5"
"1267","d","31","1","1","71","33","24","39","1","1","0","5"
"605.7999999523163","j","0","1","0","72","71","54","37","1","1","1","5"
"387.7000000476837","d","32","1","1","73","64","93","48","0","1","0","5"
"null","null","-1","1","1","74","56","66","9","1","1","0","5"
"241.80000019073486","d","29","1","1","75","36","12","42","0","1","1","5"
"1657","d","31","1","1","76","33","83","67","0","1","1","5"
"649.2999999523163","j","30","1","0","77","54","46","98","0","1","0","5"
"485.60000014305115","j","30","1","0","78","28","40","49","1","1","0","5"
"530.8999998569489","j","30","1","0","79","91","73","92","1","1","0","5"
"412.90000009536743","j","0","1","0","80","55","47","82","1","1","1","5"
"472.60000014305115","j","0","1","0","81","1","43","4","0","1","1","5"
"311.7999999523163","d","31","1","1","82","61","44","81","0","1","0","5"
"672.2000000476837","j","30","1","0","83","46","70","10","1","1","0","5"
"499.90000009536743","j","0","1","0","84","72","87","74","1","1","1","5"
"497.7000000476837","d","30","1","1","85","84","32","87","1","1","0","5"
"768","d","33","1","1","86","82","46","98","0","1","0","5"
"288.5","d","30","1","1","87","42","27","8","0","1","1","5"
"461.2999999523163","j","0","1","0","88","50","56","93","0","1","1","5"
"null","null","-1","1","1","89","20","56","82","1","1","1","5"
"1410.1000001430511","j","0","1","0","90","66","77","14","0","1","1","5"
"505.7000000476837","j","30","4","0","91","24","97","26","1","2","0","5"
"175.29999995231628","j","30","4","0","92","7","74","72","0","2","0","5"
"741.7000000476837","d","32","4","1","93","84","79","39","0","2","0","5"
"393.7999999523163","d","28","4","1","94","80","67","1","0","2","0","5"
"305.7000000476837","d","30","4","1","95","47","49","14","1","2","0","5"
"1028","d","35","4","1","96","64","80","82","0","2","1","5"
"491.39999985694885","d","31","4","1","97","23","29","38","1","2","1","5"
"440.90000009536743","d","33","4","1","98","3","64","61","1","2","0","5"
"352.2000000476837","k","30","4","0","99","27","59","95","1","2","1","5"
"391.7000000476837","j","0","4","0","100","4","94","96","0","2","1","5"
"363.09999990463257","j","0","4","0","101","6","22","90","0","2","1","5"
"258.2999999523163","d","36","4","1","102","53","57","85","1","2","1","5"
"303.7999999523163","j","0","4","0","103","31","44","7","1","2","1","5"
"349.39999985694885","d","35","4","1","104","40","88","92","1","2","0","5"
"354.7000000476837","j","0","4","0","105","35","70","36","0","2","1","5"
"244.70000004768372","j","30","4","0","106","49","56","34","0","2","0","5"
"340.5","j","30","4","0","107","56","1","31","0","2","0","5"
"312.5","j","0","4","0","108","51","98","45","0","2","1","5"
"298.5","d","36","4","1","109","32","82","2","1","2","0","5"
"392.40000009536743","d","32","4","1","110","46","65","96","1","2","1","5"
"478.7999999523163","j","0","0","0","111","13","79","54","1","3","1","5"
"330.5","j","30","0","0","112","97","77","71","0","3","0","5"
"1092","j","30","0","0","113","41","71","43","1","3","0","5"
"713.8000001907349","d","31","0","1","114","64","27","60","0","3","0","5"
"317.7999999523163","j","0","0","0","115","10","85","47","1","3","1","5"
"300.5","j","30","0","0","116","64","35","70","1","3","0","5"
"374.69999980926514","j","0","0","0","117","12","65","35","0","3","1","5"
"498.5","d","28","0","1","118","42","41","75","1","3","0","5"
"358.09999990463257","d","26","0","1","119","16","74","98","1","3","0","5"
"301.59999990463257","j","0","0","0","120","69","43","76","0","3","1","5"
"679.2999999523163","d","26","0","1","121","72","19","41","0","3","1","5"
"535.8999998569489","d","27","0","1","122","78","17","38","1","3","1","5"
"306.2999999523163","d","27","0","1","123","21","80","29","1","3","1","5"
"328.5","d","26","0","1","124","25","21","67","0","3","1","5"
"253.5","d","26","0","1","125","91","48","72","0","3","1","5"
"306.59999990463257","j","30","0","0","126","30","12","26","1","3","0","5"
"346.7000000476837","j","30","0","0","127","15","75","43","0","3","0","5"
"509","d","31","0","1","128","14","9","69","0","3","1","5"
"571.2000000476837","d","32","0","1","129","29","73","71","0","3","0","5"
"633.4000000953674","j","30","0","0","130","95","79","30","1","3","0","5"
"396.60000014305115","j","30","4","0","131","91","86","69","0","4","0","5"
"130","j","30","4","0","132","74","33","96","1","4","0","5"
"274.09999990463257","j","0","4","0","133","53","80","22","1","4","1","5"
"335.7999999523163","d","32","4","1","134","92","50","29","1","4","1","5"
"402.40000009536743","d","32","4","1","135","95","96","29","1","4","0","5"
"647.3000001907349","d","32","4","1","136","22","9","35","0","4","1","5"
"440.2999999523163","k","0","4","0","137","51","92","62","1","4","0","5"
"565.0999999046326","d","28","4","1","138","91","1","31","0","4","0","5"
"938.7000000476837","d","36","4","1","139","66","75","35","1","4","0","5"
"450.7999999523163","j","0","4","0","140","64","43","90","1","4","1","5"
"630.5","j","30","4","0","141","20","91","45","0","4","0","5"
"494.09999990463257","k","30","4","0","142","84","93","8","1","4","1","5"
"635.7999999523163","k","0","4","0","143","21","81","61","1","4","0","5"
"376.89999985694885","j","0","4","0","144","74","15","53","0","4","1","5"
"1724.9000000953674","d","36","4","1","145","29","41","65","1","4","0","5"
"539.7999999523163","j","0","4","0","146","10","93","8","0","4","1","5"
"271.7000000476837","d","35","4","1","147","79","70","62","0","4","1","5"
"287.10000014305115","d","29","4","1","148","18","77","28","0","4","0","5"
"282.2999999523163","d","28","4","1","149","80","3","24","0","4","1","5"
"371.89999985694885","d","36","4","1","150","53","86","42","0","4","1","5"
"357.89999985694885","d","35","2","1","151","70","89","75","1","5","1","5"
"13","d","31","2","1","152","80","7","87","1","5","1","5"
"324.2999999523163","d","37","2","1","153","29","67","82","0","5","0","5"
"828.1000001430511","j","30","2","0","154","98","28","3","0","5","0","5"
"566.0999999046326","j","0","2","0","155","24","78","61","1","5","1","5"
"323.2000000476837","d","35","2","1","156","92","70","27","0","5","0","5"
"1122.9000000953674","j","0","2","0","157","96","13","2","1","5","1","5"
"1095","k","0","2","0","158","98","26","61","1","5","0","5"
"476.80000019073486","j","0","2","0","159","38","44","60","1","5","1","5"
"567.2000000476837","d","33","2","1","160","65","32","76","0","5","0","5"
"909.5999999046326","k","30","2","0","161","69","32","36","0","5","1","5"
"828.2000000476837","k","0","2","0","162","43","88","6","0","5","0","5"
"711","d","33","2","1","163","12","50","70","0","5","0","5"
"1091.9000000953674","k","30","2","0","164","70","0","12","1","5","1","5"
"1266.4000000953674","d","32","2","1","165","85","54","4","0","5","1","5"
"600.0999999046326","k","0","2","0","166","50","87","65","1","5","0","5"
"745.6000001430511","d","32","2","1","167","68","14","45","0","5","0","5"
"1227.8999998569489","d","37","2","1","168","41","6","30","1","5","1","5"
"518.5","j","30","2","0","169","42","32","30","1","5","0","5"
"416","d","37","2","1","170","29","16","68","0","5","1","5"
"852.5","j","30","2","0","171","71","82","19","0","6","0","5"
"601.5","d","31","2","1","172","93","78","5","0","6","1","5"
"810.5999999046326","d","35","2","1","173","70","97","43","1","6","1","5"
"495.90000009536743","j","0","2","0","174","98","64","20","1","6","1","5"
"646.9000000953674","d","32","2","1","175","48","80","37","1","6","1","5"
"810.5999999046326","k","30","2","0","176","41","36","23","0","6","1","5"
"635.1999998092651","d","33","2","1","177","12","32","67","0","6","1","5"
"390.7999999523163","k","30","2","0","178","87","39","15","1","6","1","5"
"402.90000009536743","d","31","2","1","179","47","35","17","0","6","0","5"
"341.7000000476837","k","0","2","0","180","85","11","88","0","6","0","5"
"641.3999998569489","d","34","2","1","181","89","21","81","1","6","0","5"
"395.7999999523163","j","30","2","0","182","86","26","54","1","6","0","5"
"352.2000000476837","d","32","2","1","183","90","29","52","1","6","0","5"
"333.2000000476837","d","33","2","1","184","42","60","7","1","6","0","5"
"359.19999980926514","j","30","2","0","185","92","80","41","0","6","0","5"
"322.89999985694885","j","0","2","0","186","76","27","11","0","6","1","5"
"545.2000000476837","d","32","2","1","187","68","51","75","0","6","1","5"
"369.89999985694885","k","30","2","0","188","60","93","5","0","6","1","5"
"377.5","d","32","2","1","189","37","89","46","1","6","0","5"
"396","k","0","2","0","190","68","16","25","1","6","0","5"
"451.89999985694885","d","31","0","1","191","74","55","52","1","7","1","5"
"573.5","j","30","0","0","192","86","64","32","1","7","0","5"
"672.4000000953674","j","30","0","0","193","24","96","84","1","7","0","5"
"422.7999999523163","d","31","0","1","194","88","34","20","1","7","0","5"
"320.89999985694885","d","26","0","1","195","69","90","5","1","7","0","5"
"355.7999999523163","j","30","0","0","196","46","3","2","1","7","0","5"
"466.89999985694885","d","27","0","1","197","18","17","75","0","7","0","5"
"326.69999980926514","d","28","0","1","198","60","55","82","0","7","1","5"
"395.2000000476837","d","31","0","1","199","64","1","2","0","7","0","5"
"433.89999985694885","j","30","0","0","200","75","57","47","0","7","0","5"
"374.10000014305115","j","0","0","0","201","76","1","32","0","7","1","5"
"403.2999999523163","d","28","0","1","202","55","49","38","1","7","1","5"
"326.5","d","30","0","1","203","75","65","57","1","7","1","5"
"406.7000000476837","d","27","0","1","204","54","19","8","0","7","1","5"
"376.59999990463257","k","30","0","0","205","55","26","63","1","7","1","5"
"453.7999999523163","k","30","0","0","206","1","48","35","0","7","1","5"
"422.2999999523163","k","0","0","0","207","94","98","82","0","7","0","5"
"442.5","j","0","0","0","208","82","75","93","0","7","1","5"
"297","d","32","0","1","209","50","23","54","0","7","0","5"
"391.5","k","30","0","0","210","76","10","60","1","7","1","5"
"544.5999999046326","j","0","3","0","211","63","96","23","0","8","1","5"
"446.5","k","30","3","0","212","38","92","12","1","8","1","5"
"542.7000000476837","d","28","3","1","213","97","95","33","0","8","1","5"
"298.39999985694885","d","38","3","1","214","87","96","66","1","8","0","5"
"356.60000014305115","d","29","3","1","215","48","85","85","0","8","0","5"
"332","d","31","3","1","216","92","66","31","0","8","1","5"
"388.2999999523163","k","0","3","0","217","6","31","39","0","8","0","5"
"818.3999998569489","d","27","3","1","218","37","18","94","0","8","1","5"
"370.59999990463257","d","31","3","1","219","84","35","13","0","8","0","5"
"398.90000009536743","j","0","3","0","220","76","78","25","1","8","1","5"
"358.7999999523163","d","29","3","1","221","83","94","4","0","8","0","5"
"388.10000014305115","k","0","3","0","222","18","80","82","1","8","0","5"
"483.2999999523163","d","35","3","1","223","17","76","63","0","8","0","5"
"407.5","j","0","3","0","224","54","1","91","1","8","1","5"
"730.5","k","30","3","0","225","40","21","76","0","8","1","5"
"416.59999990463257","k","30","3","0","226","3","77","48","1","8","1","5"
"402.5","k","0","3","0","227","16","71","25","1","8","0","5"
"389.7999999523163","d","31","3","1","228","34","90","29","1","8","1","5"
"392.09999990463257","j","30","3","0","229","95","89","10","1","8","0","5"
"340.59999990463257","d","31","3","1","230","22","72","80","1","8","0","5"
"618.6999998092651","j","30","3","0","231","79","44","80","0","9","0","5"
"280.59999990463257","d","31","3","1","232","46","90","14","1","9","0","5"
"1336.4000000953674","j","0","3","0","233","10","79","76","1","9","1","5"
"666.1999998092651","d","32","3","1","234","33","50","39","0","9","0","5"
"482.09999990463257","d","37","3","1","235","19","72","82","1","9","0","5"
"509.39999985694885","d","32","3","1","236","98","41","69","1","9","1","5"
"440.7000000476837","k","0","3","0","237","65","96","47","0","9","0","5"
"359.5","d","35","3","1","238","17","81","42","0","9","1","5"
"369.7000000476837","j","0","3","0","239","84","64","89","0","9","1","5"
"498.09999990463257","k","30","3","0","240","35","33","26","1","9","1","5"
"338.2000000476837","k","30","3","0","241","75","20","8","1","9","1","5"
"366.59999990463257","d","36","3","1","242","13","49","84","0","9","1","5"
"384","d","27","3","1","243","91","92","52","1","9","0","5"
"438","k","30","3","0","244","67","42","77","1","9","1","5"
"383.09999990463257","d","31","3","1","245","76","2","84","0","9","0","5"
"387.7999999523163","k","0","3","0","246","80","19","44","1","9","0","5"
"418.2000000476837","j","0","3","0","247","87","12","78","0","9","1","5"
"622.9000000953674","d","30","3","1","248","26","4","53","0","9","0","5"
"429.5","d","27","3","1","249","91","65","13","1","9","0","5"
"458.7000000476837","k","30","3","0","250","59","4","31","0","9","1","5"
