"rt","key_press","reward","color_reward_index","type","trial_num","stim_1","stim_2","new_stim","change_index","block","changed","marble_set"
"2296.699999809265","d","27","0","1","1","18","4","5","0","0","0","0"
"1836.6999998092651","f","32","0","1","2","92","66","15","0","0","0","0"
"4243.900000095367","f","28","0","1","3","6","60","45","0","0","0","0"
"3964.7000002861023","f","26","0","1","4","71","47","58","0","0","0","0"
"1195.5999999046326","f","30","0","1","5","5","6","64","0","0","0","0"
"1052.6999998092651","f","26","0","1","6","88","16","69","0","0","0","0"
"1331.9000000953674","f","32","0","1","7","39","50","22","0","0","0","0"
"932.5999999046326","f","27","0","1","8","35","18","60","0","0","0","0"
"1004.9000000953674","d","30","0","1","9","3","0","94","0","0","0","0"
"1332.5999999046326","d","30","0","1","10","7","68","14","0","0","0","0"
"692","d","32","0","1","11","43","97","10","0","0","0","0"
"1596","d","32","0","1","12","43","36","21","0","0","0","0"
"1813.8000001907349","f","26","0","1","13","95","71","97","0","0","0","0"
"1283.4000000953674","d","31","0","1","14","49","41","48","0","0","0","0"
"2727.5999999046326","f","27","0","1","15","38","62","47","0","0","0","0"
"5492.299999713898","f","27","0","1","16","13","30","33","0","0","0","0"
"2523.7999997138977","f","31","0","1","17","64","79","46","0","0","0","0"
"1156.8999996185303","f","30","0","1","18","69","92","83","0","0","0","0"
"1724","f","26","0","1","19","15","51","29","0","0","0","0"
"1492.6000003814697","f","27","0","1","20","92","81","64","0","0","0","0"
"8061.200000286102","j","30","0","0","21","23","17","65","0","0","0","0"
"2428.7999997138977","k","0","0","0","22","61","49","12","1","0","0","0"
"1307.6999998092651","j","0","0","0","23","42","38","33","0","0","1","0"
"1291.0999999046326","k","0","0","0","24","43","56","16","1","0","0","0"
"948","j","30","0","0","25","77","97","56","1","0","0","0"
"1979.0999999046326","j","30","0","0","26","44","79","95","0","0","0","0"
"1062.0999999046326","k","30","0","0","27","76","21","79","1","0","1","0"
"4789","j","0","0","0","28","56","87","41","0","0","1","0"
"1085.3000001907349","j","30","0","0","29","11","28","95","1","0","0","0"
"1021.0999999046326","k","30","0","0","30","6","2","29","0","0","1","0"
"1315.2999997138977","k","30","0","0","31","82","8","84","1","0","1","0"
"972.3000001907349","j","30","0","0","32","88","89","35","0","0","0","0"
"1408.2999997138977","j","30","0","0","33","55","97","56","1","0","0","0"
"2603.199999809265","k","30","0","0","34","50","96","11","1","0","1","0"
"2446.300000190735","j","0","0","0","35","37","78","12","0","0","1","0"
"2338.4000000953674","j","0","0","0","36","65","44","80","0","0","1","0"
"2180.300000190735","j","30","0","0","37","41","2","61","0","0","0","0"
"1550.1999998092651","j","30","0","0","38","8","66","24","1","0","0","0"
"1396.5","k","30","0","0","39","27","97","32","0","0","1","0"
"1037.2000002861023","j","30","0","0","40","78","64","91","0","0","0","0"
"4046.699999809265","","","","","","","","","","","",""
"2786.4000000953674","","","","","","","","","","","",""
"1825.8000001907349","d","29","3","1","43","21","61","75","1","0","0","0"
"983.5999999046326","d","35","3","1","44","39","16","80","0","0","1","0"
"1316.6999998092651","j","30","3","0","45","55","86","73","1","0","0","0"
"null","null","-1","3","1","46","5","27","46","0","0","0","0"
"1254.0999999046326","f","25","3","1","47","95","0","58","1","0","0","0"
"1431.6999998092651","k","0","3","0","48","55","18","19","1","0","0","0"
"727.7000002861023","d","35","3","1","49","14","50","39","1","0","1","0"
"1006.3999996185303","k","0","3","0","50","9","34","38","0","0","0","0"
"1143.6999998092651","f","30","3","1","51","33","52","20","0","0","0","0"
"1175.3000001907349","j","0","3","0","52","36","68","90","0","0","1","0"
"846.3000001907349","k","30","3","0","53","78","95","43","1","0","1","0"
"1022.4000000953674","f","31","3","1","54","57","46","63","1","0","0","0"
"1088","j","0","3","0","55","69","42","23","0","0","1","0"
"null","null","-1","3","1","56","28","20","85","1","0","0","0"
"955.9000000953674","k","30","3","0","57","62","15","5","1","0","1","0"
"1191","k","30","3","0","58","65","98","29","0","0","1","0"
"1518.8000001907349","k","30","3","0","59","6","27","14","0","0","1","0"
"1191.9000000953674","f","35","3","1","60","61","41","7","0","0","1","0"
"1647.5999999046326","j","30","3","0","61","64","84","52","1","0","0","0"
"null","null","-1","3","1","62","42","55","15","0","0","1","0"
"1682","j","0","2","0","63","85","41","40","0","1","1","0"
"991.7999997138977","f","32","2","1","64","23","68","16","1","1","1","0"
"1448.6999998092651","f","32","2","1","65","16","21","2","1","1","0","0"
"1150.0999999046326","k","30","2","0","66","88","56","84","0","1","1","0"
"1654.1000003814697","k","30","2","0","67","21","8","38","1","1","1","0"
"1064.0999999046326","f","38","2","1","68","34","19","4","0","1","0","0"
"1070.9000000953674","d","33","2","1","69","31","21","79","0","1","1","0"
"null","null","-1","2","1","70","62","98","25","0","1","0","0"
"1219.8000001907349","j","0","2","0","71","87","34","4","0","1","1","0"
"1726.8999996185303","d","37","2","1","72","96","39","88","1","1","0","0"
"1247.2000002861023","k","0","2","0","73","24","40","43","0","1","0","0"
"1637.7999997138977","j","30","2","0","74","87","23","67","1","1","0","0"
"1112.0999999046326","j","30","2","0","75","3","62","41","0","1","0","0"
"1414.7000002861023","k","0","2","0","76","82","69","64","1","1","0","0"
"1608.7999997138977","f","33","2","1","77","91","8","78","1","1","1","0"
"1069.6999998092651","d","31","2","1","78","86","68","76","1","1","1","0"
"869","d","36","2","1","79","49","82","41","0","1","1","0"
"951","j","30","2","0","80","8","87","61","1","1","0","0"
"1053.0999999046326","k","0","2","0","81","76","30","25","1","1","0","0"
"1038.0999999046326","f","35","2","1","82","47","92","37","0","1","1","0"
"1025.2000002861023","j","30","2","0","83","96","8","36","1","2","0","0"
"null","null","-1","2","0","84","90","44","29","0","2","1","0"
"1110.9000000953674","j","30","2","0","85","64","90","83","0","2","0","0"
"null","null","-1","2","0","86","6","80","14","1","2","0","0"
"1950.5","f","33","2","1","87","78","26","95","1","2","1","0"
"null","null","-1","2","1","88","97","22","4","0","2","0","0"
"742","j","30","2","0","89","41","15","83","0","2","0","0"
"1359.5999999046326","j","0","2","0","90","5","98","48","1","2","1","0"
"null","null","-1","2","1","91","92","36","43","1","2","0","0"
"null","null","-1","2","0","92","29","30","24","1","2","0","0"
"1053.7000002861023","j","0","2","0","93","81","23","8","0","2","1","0"
"1200.7000002861023","d","35","2","1","94","77","30","38","1","2","0","0"
"1629.3000001907349","d","33","2","1","95","23","60","74","0","2","0","0"
"1447.9000000953674","f","36","2","1","96","52","57","4","0","2","1","0"
"1167","d","32","2","1","97","81","28","18","1","2","0","0"
"null","null","-1","2","1","98","60","38","30","1","2","1","0"
"1078.4000000953674","f","35","2","1","99","14","61","47","0","2","1","0"
"null","null","-1","2","0","100","64","13","4","0","2","1","0"
"1207.5999999046326","j","0","2","0","101","88","8","17","0","2","1","0"
"983.3000001907349","d","33","2","1","102","8","5","58","1","2","1","0"
"1025.3000001907349","d","28","1","1","103","97","77","94","1","3","0","0"
"null","null","-1","1","1","104","57","52","76","0","3","0","0"
"1788.0999999046326","j","30","1","0","105","5","59","28","0","3","0","0"
"1096.4000000953674","j","0","1","0","106","59","89","64","0","3","1","0"
"927.1999998092651","k","30","1","0","107","83","18","8","0","3","1","0"
"1135.9000000953674","d","33","1","1","108","88","58","42","0","3","1","0"
"974.4000000953674","k","30","1","0","109","96","37","73","0","3","1","0"
"703.6999998092651","d","30","1","1","110","77","80","60","1","3","1","0"
"881.3000001907349","j","30","1","0","111","10","43","13","0","3","0","0"
"951.7000002861023","k","30","1","0","112","11","94","39","1","3","1","0"
"1159.1000003814697","d","29","1","1","113","44","16","70","0","3","1","0"
"null","null","-1","1","0","114","12","18","67","1","3","0","0"
"1148.5","f","29","1","1","115","56","8","41","1","3","0","0"
"null","null","-1","1","0","116","62","30","5","0","3","1","0"
"1062.0999999046326","j","30","1","0","117","22","88","77","1","3","0","0"
"896.3000001907349","f","30","1","1","118","30","34","1","1","3","1","0"
"1393.7000002861023","d","32","1","1","119","57","17","35","1","3","1","0"
"1093","f","36","1","1","120","32","9","77","1","3","0","0"
"1086.5","j","30","1","0","121","67","52","96","0","3","0","0"
"968.9000000953674","f","29","1","1","122","5","73","22","1","3","0","0"
"1208.1999998092651","f","31","4","1","123","78","8","86","1","4","0","0"
"1071.8000001907349","j","0","4","0","124","48","8","26","1","4","1","0"
"911.3000001907349","f","29","4","1","125","48","18","20","1","4","0","0"
"1496","k","0","4","0","126","33","60","14","1","4","0","0"
"1198.5999999046326","j","0","4","0","127","51","97","85","0","4","1","0"
"1142.5","k","30","4","0","128","23","12","24","0","4","1","0"
"1157.5","d","36","4","1","129","66","31","92","1","4","1","0"
"1673","d","29","4","1","130","30","59","82","1","4","0","0"
"1031.2000002861023","d","31","4","1","131","73","52","10","0","4","1","0"
"1120.4000000953674","f","28","4","1","132","56","16","23","0","4","1","0"
"1053.2000002861023","j","0","4","0","133","63","47","76","1","4","1","0"
"1073.2999997138977","j","0","4","0","134","21","86","15","0","4","1","0"
"1269.6999998092651","j","30","4","0","135","52","27","97","0","4","0","0"
"1073","d","32","4","1","136","42","80","78","1","4","1","0"
"1182.0999999046326","f","40","4","1","137","87","1","33","1","4","0","0"
"927.6999998092651","j","0","4","0","138","70","66","37","1","4","1","0"
"958.5999999046326","f","31","4","1","139","37","26","94","0","4","0","0"
"935.2000002861023","j","30","4","0","140","72","69","78","0","4","0","0"
"1142.8999996185303","d","34","4","1","141","94","31","10","0","4","0","0"
"967.3000001907349","j","30","4","0","142","2","62","54","0","4","0","0"
"null","null","-1","0","0","143","87","16","45","0","5","1","0"
"1064.3000001907349","j","30","0","0","144","2","32","59","1","5","0","0"
"1014.9000000953674","j","0","0","0","145","40","21","24","0","5","1","0"
"null","null","-1","0","1","146","98","39","28","0","5","0","0"
"983","d","32","0","1","147","96","29","54","0","5","1","0"
"972","f","26","0","1","148","63","97","33","1","5","0","0"
"967.4000000953674","d","28","0","1","149","73","0","65","0","5","1","0"
"1573.0999999046326","f","26","0","1","150","96","47","31","1","5","1","0"
"1289.3000001907349","f","26","0","1","151","56","86","22","0","5","0","0"
"1150.8000001907349","j","0","0","0","152","46","80","65","1","5","1","0"
"889.3000001907349","f","28","0","1","153","21","4","1","0","5","1","0"
"null","null","-1","0","1","154","81","67","74","1","5","0","0"
"1340.6999998092651","j","30","0","0","155","64","77","13","1","5","0","0"
"1244.5","j","30","0","0","156","23","66","61","1","5","0","0"
"1039.5999999046326","f","30","0","1","157","7","95","71","0","5","1","0"
"1309.9000000953674","j","30","0","0","158","45","4","58","0","5","0","0"
"1024.6000003814697","j","0","0","0","159","74","46","49","1","5","1","0"
"1382","d","32","0","1","160","32","96","93","0","5","0","0"
"1366.6999998092651","k","0","0","0","161","12","37","44","1","5","0","0"
"1056.0999999046326","j","0","0","0","162","46","25","34","1","5","1","0"
"1927.9000000953674","d","31","4","1","163","8","67","57","0","6","0","0"
"1215.5999999046326","j","30","4","0","164","3","77","91","0","6","0","0"
"1300.5","j","0","4","0","165","48","37","67","0","6","1","0"
"1432.1999998092651","d","34","4","1","166","98","67","81","1","6","1","0"
"null","null","-1","4","1","167","92","62","78","0","6","1","0"
"1011.6000003814697","j","30","4","0","168","74","17","5","0","6","0","0"
"null","null","-1","4","1","169","95","22","35","1","6","0","0"
"1483.8000001907349","k","30","4","0","170","49","85","51","1","6","1","0"
"1949.8999996185303","j","0","4","0","171","91","48","17","1","6","1","0"
"null","null","-1","4","0","172","62","98","33","0","6","0","0"
"1340.5999999046326","f","35","4","1","173","29","96","9","0","6","1","0"
"null","null","-1","4","1","174","51","93","65","1","6","1","0"
"962.8999996185303","f","31","4","1","175","6","38","64","1","6","0","0"
"980.4000000953674","d","35","4","1","176","67","61","24","0","6","0","0"
"1165.5","k","0","4","0","177","39","73","26","1","6","0","0"
"999.7000002861023","k","0","4","0","178","79","85","56","1","6","0","0"
"null","null","-1","4","0","179","66","80","33","0","6","1","0"
"1258.9000000953674","f","29","4","1","180","85","18","26","1","6","0","0"
"1486.6999998092651","k","30","4","0","181","84","63","29","1","6","1","0"
"1413.6999998092651","d","34","4","1","182","98","86","17","0","6","1","0"
"null","null","-1","0","0","183","70","29","43","0","7","0","0"
"1232.5","j","30","0","0","184","79","92","24","0","7","0","0"
"1564.8000001907349","j","0","0","0","185","27","18","46","0","7","1","0"
"1087.2000002861023","d","27","0","1","186","21","91","30","1","7","1","0"
"1070","k","30","0","0","187","49","10","24","1","7","1","0"
"1479.4000000953674","f","31","0","1","188","41","79","27","1","7","1","0"
"1099.9000000953674","d","30","0","1","189","58","23","28","0","7","1","0"
"951.9000000953674","j","30","0","0","190","20","57","32","0","7","0","0"
"1341.9000000953674","j","30","0","0","191","28","60","42","0","7","0","0"
"982.5","k","30","0","0","192","88","12","71","0","7","1","0"
"1246.2000002861023","j","0","0","0","193","59","83","17","0","7","1","0"
"1161","f","32","0","1","194","39","43","22","0","7","0","0"
"1654","j","30","0","0","195","28","67","46","1","7","0","0"
"1081.1000003814697","d","28","0","1","196","60","81","10","1","7","0","0"
"1724.2000002861023","f","31","0","1","197","65","74","49","1","7","0","0"
"1486.7999997138977","d","31","0","1","198","67","76","42","0","7","0","0"
"1870","f","28","0","1","199","29","44","44","1","7","1","0"
"1037.5999999046326","k","30","0","0","200","98","32","54","1","7","1","0"
"null","null","-1","0","1","201","52","63","17","1","7","1","0"
"1036.3999996185303","f","33","0","1","202","41","1","96","1","7","0","0"
"1000.6999998092651","j","0","3","0","203","66","15","62","1","8","1","0"
"1423.1999998092651","f","31","3","1","204","32","60","98","1","8","0","0"
"1135.7000002861023","f","32","3","1","205","57","98","14","0","8","0","0"
"1478.4000000953674","d","31","3","1","206","7","98","24","0","8","0","0"
"null","null","-1","3","1","207","34","31","57","1","8","0","0"
"1028.6999998092651","f","28","3","1","208","34","85","16","0","8","0","0"
"1308.8000001907349","j","0","3","0","209","52","36","74","0","8","1","0"
"null","null","-1","3","1","210","5","89","49","1","8","0","0"
"939.5999999046326","j","30","3","0","211","69","82","31","0","8","0","0"
"1814.0999999046326","j","0","3","0","212","88","65","73","1","8","1","0"
"1904.0999999046326","d","31","3","1","213","95","27","78","1","8","0","0"
"988.5","k","30","3","0","214","35","43","94","1","8","1","0"
"1079","j","30","3","0","215","66","53","3","1","8","0","0"
"null","null","-1","3","1","216","46","39","69","0","8","1","0"
"1684.7999997138977","j","30","3","0","217","5","40","79","1","8","0","0"
"1440","j","0","3","0","218","42","10","7","0","8","1","0"
"1152.5999999046326","d","38","3","1","219","87","56","37","1","8","1","0"
"1003.5","k","30","3","0","220","64","74","0","0","8","1","0"
"932.8000001907349","j","0","3","0","221","17","57","90","0","8","1","0"
"877.8000001907349","d","35","3","1","222","43","74","57","0","8","1","0"
"1644.4000000953674","f","33","1","1","223","86","66","51","0","9","1","0"
"1252.5999999046326","j","0","1","0","224","83","16","81","0","9","1","0"
"1259.9000000953674","d","28","1","1","225","30","75","11","1","9","1","0"
"981.5","d","30","1","1","226","92","54","17","0","9","0","0"
"1701.5","d","32","1","1","227","49","90","11","1","9","0","0"
"1043.5999999046326","k","0","1","0","228","5","14","48","1","9","0","0"
"1204.7999997138977","j","0","1","0","229","87","72","92","1","9","1","0"
"1044.7999997138977","k","30","1","0","230","61","68","86","1","9","1","0"
"1031.8000001907349","d","29","1","1","231","59","71","75","1","9","0","0"
"null","null","-1","1","0","232","29","6","36","0","9","1","0"
"1301.7999997138977","f","28","1","1","233","14","97","38","1","9","1","0"
"1076.8000001907349","k","0","1","0","234","94","71","3","0","9","0","0"
"1416.9000000953674","j","30","1","0","235","75","0","86","0","9","0","0"
"1213.5","k","30","1","0","236","45","14","31","0","9","1","0"
"1151.6999998092651","d","33","1","1","237","43","53","94","1","9","0","0"
"1350","d","29","1","1","238","26","76","85","0","9","0","0"
"1844.0999999046326","d","36","1","1","239","9","39","96","1","9","0","0"
"1137.3000001907349","k","30","1","0","240","4","34","41","1","9","1","0"
"1368.1999998092651","d","29","1","1","241","35","8","45","0","9","1","0"
"1268.7000002861023","k","0","1","0","242","24","57","16","0","9","0","0"
