"rt","key_press","reward","color_reward_index","type","trial_num","stim_1","stim_2","new_stim","change_index","block","changed","marble_set"
"5145","d","31","0","1","1","82","87","66","0","0","0","2"
"1974","d","30","0","1","2","70","89","13","0","0","0","2"
"640","f","32","0","1","3","21","66","29","0","0","0","2"
"2673","d","26","0","1","4","51","45","73","0","0","0","2"
"4","f","32","0","1","5","67","53","74","0","0","0","2"
"2305","f","28","0","1","6","62","42","6","0","0","0","2"
"1305","f","27","0","1","7","23","81","47","0","0","0","2"
"1231","f","28","0","1","8","23","26","83","0","0","0","2"
"197","d","28","0","1","9","38","35","45","0","0","0","2"
"1171","d","33","0","1","10","19","62","37","0","0","0","2"
"847","d","30","0","1","11","70","7","85","0","0","0","2"
"899","d","30","0","1","12","70","96","63","0","0","0","2"
"848","d","31","0","1","13","14","39","8","0","0","0","2"
"1809","f","31","0","1","14","4","88","65","0","0","0","2"
"1221","d","28","0","1","15","42","71","29","0","0","0","2"
"188","f","27","0","1","16","18","20","11","0","0","0","2"
"1629","d","28","0","1","17","12","89","29","0","0","0","2"
"1239","f","30","0","1","18","73","6","69","0","0","0","2"
"1227","d","26","0","1","19","25","30","86","0","0","0","2"
"738","f","29","0","1","20","31","89","14","0","0","0","2"
"2507","j","30","0","0","21","16","76","24","0","0","0","2"
"1770","j","30","0","0","22","32","48","18","1","0","0","2"
"2039","k","0","0","0","23","20","19","77","1","0","0","2"
"2065","k","30","0","0","24","99","91","93","0","0","1","2"
"3020","k","30","0","0","25","35","6","84","1","0","1","2"
"1783","j","30","0","0","26","29","82","19","0","0","0","2"
"2492","j","30","0","0","27","44","3","28","1","0","0","2"
"2318","k","30","0","0","28","11","18","91","1","0","1","2"
"1536","j","30","0","0","29","52","2","19","1","0","0","2"
"1368","j","30","0","0","30","5","18","79","0","0","0","2"
"1856","k","30","0","0","31","95","13","7","1","0","1","2"
"1227","k","30","0","0","32","89","48","70","0","0","1","2"
"1360","k","30","0","0","33","95","10","83","1","0","1","2"
"1241","j","30","0","0","34","91","1","64","0","0","0","2"
"1715","j","30","0","0","35","94","39","95","0","0","0","2"
"5477","k","30","0","0","36","85","57","7","1","0","1","2"
"1451","k","30","0","0","37","39","51","26","1","0","1","2"
"1285","j","30","0","0","38","3","85","81","0","0","0","2"
"1371","k","30","0","0","39","6","90","64","0","0","1","2"
"1318","k","30","0","0","40","36","81","40","0","0","1","2"
"27652","","","","","","","","","","","",""
"12311","","","","","","","","","","","",""
"7599","","","","","","","","","","","",""
"3159","","","","","","","","","","","",""
"3294","","","","","","","","","","","",""
"6510","","","","","","","","","","","",""
"null","null","-1","3","0","47","38","93","50","0","0","0","2"
"null","null","-1","3","1","48","87","36","60","0","0","1","2"
"null","null","-1","3","1","49","90","12","97","0","0","0","2"
"1971","d","32","3","1","50","33","84","98","1","0","0","2"
"null","null","-1","3","0","51","36","68","79","0","0","1","2"
"1070","d","29","3","1","52","28","44","32","0","0","0","2"
"1575","k","30","3","0","53","9","7","63","1","0","1","2"
"1319","j","0","3","0","54","26","63","0","1","0","1","2"
"1125","d","35","3","1","55","66","44","13","1","0","1","2"
"1207","k","30","3","0","56","24","22","25","0","0","1","2"
"1222","d","30","3","1","57","55","6","20","1","0","1","2"
"1143","k","30","3","0","58","95","77","26","0","0","1","2"
"867","k","0","3","0","59","1","35","61","1","0","0","2"
"843","d","32","3","1","60","15","10","65","1","0","0","2"
"1212","k","0","3","0","61","13","22","10","1","0","0","2"
"1466","j","0","3","0","62","18","46","90","0","0","1","2"
"1092","d","35","3","1","63","66","21","11","1","0","0","2"
"1697","j","0","3","0","64","23","71","76","1","0","1","2"
"1332","d","28","3","1","65","68","61","67","0","0","0","2"
"1619","d","28","3","1","66","30","96","48","0","0","0","2"
"1347","k","0","4","0","67","55","83","6","0","1","0","2"
"1174","j","30","4","0","68","69","8","37","0","1","0","2"
"1352","k","0","4","0","69","70","92","3","1","1","0","2"
"1332","d","32","4","1","70","2","66","86","0","1","0","2"
"1302","d","31","4","1","71","52","78","0","1","1","1","2"
"1250","d","35","4","1","72","67","29","72","0","1","0","2"
"1254","d","31","4","1","73","36","25","55","0","1","0","2"
"1175","d","29","4","1","74","68","5","3","1","1","0","2"
"1157","f","28","4","1","75","63","86","40","1","1","0","2"
"1406","k","30","4","0","76","17","16","57","1","1","1","2"
"1156","k","30","4","0","77","68","67","89","0","1","1","2"
"1246","k","30","4","0","78","50","91","3","0","1","1","2"
"1379","k","30","4","0","79","50","51","44","1","1","1","2"
"1221","d","28","4","1","80","86","27","54","1","1","1","2"
"764","f","33","4","1","81","11","70","85","1","1","0","2"
"1260","k","30","4","0","82","32","8","35","0","1","1","2"
"1315","k","30","4","0","83","20","75","62","1","1","1","2"
"null","null","-1","4","1","84","19","49","6","1","1","1","2"
"1586","k","0","4","0","85","70","93","40","0","1","0","2"
"937","d","33","4","1","86","6","40","87","0","1","1","2"
"923","d","27","0","1","87","90","32","6","1","2","0","2"
"1100","f","30","0","1","88","31","95","63","0","2","0","2"
"931","d","26","0","1","89","16","82","22","0","2","0","2"
"1020","k","0","0","0","90","49","39","83","0","2","0","2"
"1487","k","0","0","0","91","57","64","14","0","2","0","2"
"1914","j","30","0","0","92","6","93","55","1","2","0","2"
"1222","d","30","0","1","93","63","95","89","1","2","1","2"
"1392","j","30","0","0","94","50","15","24","1","2","0","2"
"1811","k","30","0","0","95","79","63","59","0","2","1","2"
"1789","j","0","0","0","96","97","26","59","0","2","1","2"
"1196","k","0","0","0","97","45","19","2","0","2","0","2"
"1567","j","30","0","0","98","19","36","68","1","2","0","2"
"1344","d","32","0","1","99","39","24","82","1","2","1","2"
"1433","d","32","0","1","100","32","64","97","1","2","1","2"
"1809","f","32","0","1","101","53","32","8","1","2","1","2"
"1824","d","27","0","1","102","30","88","27","0","2","0","2"
"1706","f","27","0","1","103","22","36","36","1","2","1","2"
"1665","d","26","0","1","104","91","18","3","1","2","1","2"
"null","null","-1","0","0","105","2","13","10","0","2","1","2"
"1269","k","30","0","0","106","17","57","41","0","2","1","2"
"1175","d","31","2","1","107","86","91","58","1","3","1","2"
"1385","d","35","2","1","108","76","51","56","1","3","0","2"
"1068","d","35","2","1","109","75","33","62","0","3","1","2"
"953","f","37","2","1","110","29","10","5","1","3","1","2"
"1612","k","0","2","0","111","85","86","30","0","3","0","2"
"1417","k","0","2","0","112","2","15","6","1","3","0","2"
"1147","d","40","2","1","113","99","25","21","0","3","0","2"
"1045","d","32","2","1","114","81","65","66","1","3","0","2"
"1537","k","0","2","0","115","83","6","44","1","3","0","2"
"1067","d","32","2","1","116","28","55","10","0","3","1","2"
"1952","j","30","2","0","117","35","67","9","0","3","0","2"
"1208","j","30","2","0","118","65","87","11","1","3","0","2"
"1647","d","37","2","1","119","41","90","2","0","3","1","2"
"null","null","-1","2","0","120","44","2","98","0","3","1","2"
"1248","k","30","2","0","121","33","35","38","1","3","1","2"
"1033","d","33","2","1","122","2","55","31","0","3","0","2"
"1251","k","30","2","0","123","54","60","93","0","3","1","2"
"1789","k","30","2","0","124","27","63","77","0","3","1","2"
"1677","j","30","2","0","125","17","16","57","1","3","0","2"
"1060","d","36","2","1","126","14","24","12","1","3","1","2"
"912","d","28","1","1","127","5","65","75","1","4","0","2"
"1705","k","0","1","0","128","56","17","16","1","4","0","2"
"1561","k","30","1","0","129","17","85","32","1","4","1","2"
"970","d","29","1","1","130","38","19","37","1","4","1","2"
"1638","j","30","1","0","131","99","75","6","1","4","0","2"
"1496","j","30","1","0","132","7","4","71","0","4","0","2"
"1034","d","30","1","1","133","95","10","91","0","4","1","2"
"919","d","31","1","1","134","89","26","71","1","4","1","2"
"1486","j","30","1","0","135","61","57","64","0","4","0","2"
"1739","j","0","1","0","136","6","23","15","0","4","1","2"
"978","d","29","1","1","137","44","5","29","0","4","0","2"
"925","d","27","1","1","138","91","78","83","0","4","1","2"
"1254","f","32","1","1","139","12","57","33","1","4","0","2"
"1595","k","30","1","0","140","64","48","20","0","4","1","2"
"1292","d","29","1","1","141","83","19","9","1","4","1","2"
"983","f","32","1","1","142","4","57","38","0","4","0","2"
"1762","k","0","1","0","143","27","81","71","0","4","0","2"
"1148","k","30","1","0","144","23","91","77","1","4","1","2"
"1983","k","0","1","0","145","41","74","61","0","4","0","2"
"838","d","27","1","1","146","25","9","8","1","4","1","2"
"1355","d","30","3","1","147","52","10","64","1","5","0","2"
"1623","k","30","3","0","148","60","43","10","0","5","1","2"
"1445","j","30","3","0","149","11","4","28","1","5","0","2"
"972","d","31","3","1","150","76","98","89","1","5","0","2"
"1650","k","30","3","0","151","36","92","18","1","5","1","2"
"1037","d","32","3","1","152","89","48","72","0","5","1","2"
"null","null","-1","3","1","153","7","23","73","1","5","0","2"
"1357","k","30","3","0","154","49","52","11","0","5","1","2"
"1185","d","27","3","1","155","25","65","98","0","5","1","2"
"1284","d","36","3","1","156","13","31","10","0","5","1","2"
"1526","k","0","3","0","157","55","86","74","1","5","0","2"
"1126","d","33","3","1","158","67","57","46","0","5","0","2"
"1066","d","27","3","1","159","51","30","0","0","5","0","2"
"1219","d","27","3","1","160","80","21","84","0","5","1","2"
"1593","k","30","3","0","161","31","33","87","0","5","1","2"
"1145","d","30","3","1","162","52","32","69","1","5","0","2"
"1368","k","30","3","0","163","58","30","1","1","5","1","2"
"1628","k","30","3","0","164","52","36","55","1","5","1","2"
"null","null","-1","3","0","165","4","86","77","1","5","0","2"
"1565","j","30","3","0","166","25","77","36","0","5","0","2"
"null","null","-1","4","0","167","76","41","68","1","6","0","2"
"null","null","-1","4","1","168","32","1","55","1","6","1","2"
"null","null","-1","4","0","169","29","64","83","0","6","1","2"
"1468","k","0","4","0","170","54","82","64","1","6","0","2"
"1543","j","30","4","0","171","32","76","27","0","6","0","2"
"1214","d","37","4","1","172","58","73","59","0","6","0","2"
"1587","k","30","4","0","173","88","24","72","1","6","1","2"
"1742","j","30","4","0","174","63","70","34","1","6","0","2"
"1284","d","32","4","1","175","42","31","63","0","6","0","2"
"987","d","30","4","1","176","47","10","29","0","6","1","2"
"893","d","29","4","1","177","85","23","2","1","6","0","2"
"1882","j","0","4","0","178","77","2","62","0","6","1","2"
"1566","j","0","4","0","179","36","24","10","1","6","1","2"
"986","d","36","4","1","180","63","38","2","1","6","1","2"
"null","null","-1","4","0","181","87","76","39","0","6","0","2"
"1590","d","30","4","1","182","93","75","51","1","6","1","2"
"1648","j","30","4","0","183","39","35","49","1","6","0","2"
"895","d","29","4","1","184","90","13","69","0","6","0","2"
"1170","d","38","4","1","185","13","37","37","0","6","1","2"
"955","d","28","4","1","186","16","52","78","0","6","1","2"
"1817","j","30","1","0","187","8","10","84","1","7","0","2"
"1706","j","30","1","0","188","82","14","88","0","7","0","2"
"1840","k","30","1","0","189","91","72","40","1","7","1","2"
"1355","k","30","1","0","190","7","0","72","1","7","1","2"
"1250","d","32","1","1","191","57","69","64","0","7","0","2"
"847","d","30","1","1","192","65","25","27","1","7","0","2"
"1011","f","32","1","1","193","94","10","69","1","7","1","2"
"895","d","29","1","1","194","38","30","49","0","7","1","2"
"821","d","29","1","1","195","12","70","5","0","7","1","2"
"1939","j","0","1","0","196","76","85","72","1","7","1","2"
"1512","d","29","1","1","197","36","39","10","0","7","0","2"
"null","null","-1","1","0","198","16","49","22","0","7","1","2"
"1321","k","30","1","0","199","75","52","18","0","7","1","2"
"1724","j","30","1","0","200","82","38","4","0","7","0","2"
"1163","d","32","1","1","201","64","84","58","1","7","0","2"
"1558","d","29","1","1","202","26","16","69","1","7","0","2"
"1642","k","30","1","0","203","20","96","68","1","7","1","2"
"1255","j","30","1","0","204","30","62","28","0","7","0","2"
"924","d","32","1","1","205","74","20","94","1","7","0","2"
"1240","d","33","1","1","206","53","85","31","0","7","1","2"
"1175","j","30","0","0","207","33","94","0","0","8","0","2"
"1389","j","30","0","0","208","58","2","92","0","8","0","2"
"1143","d","31","0","1","209","57","17","32","0","8","0","2"
"783","d","31","0","1","210","82","88","41","1","8","1","2"
"1512","j","30","0","0","211","85","55","35","0","8","0","2"
"1394","k","30","0","0","212","74","55","21","0","8","1","2"
"1294","f","32","0","1","213","60","17","67","1","8","1","2"
"1159","f","28","0","1","214","69","65","83","0","8","0","2"
"1492","d","32","0","1","215","43","11","98","0","8","0","2"
"1290","f","27","0","1","216","83","68","64","1","8","1","2"
"1272","d","30","0","1","217","3","67","45","1","8","1","2"
"1354","j","30","0","0","218","99","65","45","1","8","0","2"
"null","null","-1","0","1","219","28","22","63","1","8","0","2"
"1268","k","0","0","0","220","99","8","97","1","8","0","2"
"1735","k","30","0","0","221","20","43","41","1","8","1","2"
"1219","j","30","0","0","222","1","61","79","0","8","0","2"
"1403","k","30","0","0","223","38","41","9","1","8","1","2"
"1522","d","26","0","1","224","5","79","86","1","8","1","2"
"1672","f","29","0","1","225","70","94","18","0","8","1","2"
"1466","k","30","0","0","226","65","56","14","0","8","1","2"
"1210","d","31","2","1","227","91","95","4","0","9","0","2"
"1582","j","0","2","0","228","28","21","8","1","9","1","2"
"1593","f","30","2","1","229","89","0","2","0","9","0","2"
"1713","j","30","2","0","230","31","21","17","0","9","0","2"
"1065","d","34","2","1","231","56","82","85","1","9","1","2"
"1302","j","30","2","0","232","37","13","95","0","9","0","2"
"1138","k","30","2","0","233","41","20","15","0","9","1","2"
"826","d","33","2","1","234","46","29","48","1","9","0","2"
"801","d","35","2","1","235","70","94","46","1","9","1","2"
"814","d","38","2","1","236","1","75","81","1","9","1","2"
"1733","j","30","2","0","237","84","43","98","1","9","0","2"
"910","d","32","2","1","238","27","79","74","0","9","1","2"
"909","d","33","2","1","239","2","26","80","1","9","0","2"
"1502","k","30","2","0","240","35","93","76","0","9","1","2"
"1471","j","30","2","0","241","62","43","1","0","9","0","2"
"1537","k","30","2","0","242","39","75","0","1","9","1","2"
"1265","k","30","2","0","243","38","79","7","0","9","1","2"
"863","d","36","2","1","244","79","2","60","0","9","0","2"
"834","d","33","2","1","245","34","40","24","1","9","0","2"
"1103","k","30","2","0","246","36","20","90","1","9","1","2"
