"rt","key_press","reward","color_reward_index","type","trial_num","stim_1","stim_2","new_stim","change_index","block","changed","marble_set"
"14618.299999952316","d","26","0","1","1","16","68","6","0","0","0","0"
"2647.5999999046326","f","27","0","1","2","91","54","46","0","0","0","0"
"1018.1000001430511","d","27","0","1","3","68","59","2","0","0","0","0"
"471.2999999523163","d","30","0","1","4","75","43","86","0","0","0","0"
"558.1999998092651","f","28","0","1","5","84","22","56","0","0","0","0"
"450.90000009536743","f","27","0","1","6","52","27","81","0","0","0","0"
"335.60000014305115","d","27","0","1","7","62","40","52","0","0","0","0"
"414","f","32","0","1","8","13","66","46","0","0","0","0"
"826.6000001430511","f","26","0","1","9","7","91","95","0","0","0","0"
"431.59999990463257","f","32","0","1","10","97","66","19","0","0","0","0"
"586.7999999523163","f","29","0","1","11","48","98","83","0","0","0","0"
"364.7000000476837","f","30","0","1","12","72","95","29","0","0","0","0"
"514.0999999046326","f","25","0","1","13","45","11","87","0","0","0","0"
"406.2999999523163","d","26","0","1","14","91","82","47","0","0","0","0"
"339.2000000476837","f","26","0","1","15","83","16","36","0","0","0","0"
"392.7999999523163","d","27","0","1","16","54","8","6","0","0","0","0"
"391.2000000476837","d","32","0","1","17","66","7","91","0","0","0","0"
"411.2000000476837","f","32","0","1","18","30","66","92","0","0","0","0"
"483.09999990463257","d","28","0","1","19","26","9","73","0","0","0","0"
"388.7999999523163","f","30","0","1","20","65","15","94","0","0","0","0"
"12054.900000095367","j","30","0","0","21","56","32","87","1","0","0","0"
"2228.7999999523163","j","0","0","0","22","16","60","53","1","0","1","0"
"2070.0999999046326","k","30","0","0","23","22","64","1","1","0","1","0"
"2161","j","30","0","0","24","43","15","44","0","0","0","0"
"1422.1000001430511","j","0","0","0","25","34","83","98","1","0","1","0"
"905.9000000953674","j","30","0","0","26","77","7","16","0","0","0","0"
"1585.8000001907349","k","30","0","0","27","69","85","33","1","0","1","0"
"1310.8000001907349","j","30","0","0","28","11","72","66","1","0","0","0"
"1235.5","k","30","0","0","29","51","66","21","0","0","1","0"
"1141.7999999523163","k","30","0","0","30","95","86","5","1","0","1","0"
"1233.6000001430511","j","0","0","0","31","14","43","8","0","0","1","0"
"1470","j","30","0","0","32","79","72","91","0","0","0","0"
"1282.6000001430511","j","30","0","0","33","28","69","72","0","0","0","0"
"1171.6999998092651","j","30","0","0","34","46","39","15","0","0","0","0"
"1332.5999999046326","k","30","0","0","35","67","10","96","1","0","1","0"
"878.2000000476837","k","30","0","0","36","77","97","33","1","0","1","0"
"1276.2000000476837","j","30","0","0","37","65","55","37","1","0","0","0"
"1261.7000000476837","k","0","0","0","38","43","7","87","0","0","0","0"
"1015.7999999523163","k","30","0","0","39","80","68","95","1","0","1","0"
"1069.2999999523163","j","30","0","0","40","6","41","95","0","0","0","0"
"29314","","","","","","","","","","","",""
"8904","","","","","","","","","","","",""
"13274.100000143051","","","","","","","","","","","",""
"8313.299999952316","","","","","","","","","","","",""
"null","null","-1","1","0","45","67","90","93","1","0","1","0"
"1460","d","30","1","1","46","20","29","18","1","0","0","0"
"842.1000001430511","f","29","1","1","47","30","52","6","0","0","0","0"
"null","null","-1","1","0","48","15","74","2","1","0","1","0"
"670.1000001430511","d","27","1","1","49","80","6","47","1","0","1","0"
"null","null","-1","1","0","50","88","19","28","0","0","0","0"
"null","null","-1","1","0","51","74","42","89","0","0","0","0"
"742.5999999046326","d","36","1","1","52","87","17","70","0","0","0","0"
"1101","d","29","1","1","53","23","30","44","1","0","1","0"
"1270.5999999046326","k","0","1","0","54","88","95","28","0","0","0","0"
"769.3999998569489","f","29","1","1","55","17","23","98","1","0","1","0"
"1778.2999999523163","k","30","1","0","56","23","19","92","1","0","1","0"
"933.7999999523163","f","28","1","1","57","14","97","94","0","0","0","0"
"1260.2999999523163","k","30","1","0","58","70","65","98","0","0","1","0"
"1374.5","j","0","1","0","59","29","28","70","1","0","1","0"
"1256","k","30","1","0","60","86","46","39","1","0","1","0"
"1052.0999999046326","d","29","1","1","61","4","77","84","0","0","0","0"
"1213.2999999523163","k","0","1","0","62","1","87","18","0","0","0","0"
"1245.2000000476837","d","29","1","1","63","55","84","61","0","0","0","0"
"1770","f","30","1","1","64","16","34","42","1","0","1","0"
"1460.4000000953674","j","30","0","0","65","26","38","92","1","1","0","0"
"1309.2999999523163","k","0","0","0","66","16","29","60","1","1","0","0"
"1298.7999999523163","k","30","0","0","67","33","29","57","0","1","1","0"
"1055","d","28","0","1","68","8","58","3","1","1","1","0"
"750.1000001430511","d","28","0","1","69","44","18","30","0","1","0","0"
"1139.8000001907349","f","28","0","1","70","9","59","62","0","1","0","0"
"1676.2999999523163","j","0","0","0","71","93","42","83","1","1","1","0"
"969.0999999046326","d","29","0","1","72","98","17","83","1","1","1","0"
"1522.2000000476837","j","30","0","0","73","5","4","9","1","1","0","0"
"837.0999999046326","d","28","0","1","74","31","20","47","0","1","1","0"
"1168","f","28","0","1","75","26","52","96","0","1","1","0"
"938.5","d","30","0","1","76","63","72","27","0","1","0","0"
"681.5","d","28","0","1","77","84","91","56","1","1","1","0"
"1164","k","30","0","0","78","30","7","32","0","1","1","0"
"1637","k","30","0","0","79","77","78","68","1","1","1","0"
"1007","k","30","0","0","80","69","82","31","1","1","1","0"
"1184.5","j","30","0","0","81","15","32","88","1","1","0","0"
"1573.5","j","30","0","0","82","18","52","71","0","1","0","0"
"1041.7000000476837","f","27","0","1","83","38","36","13","0","1","0","0"
"839.7000000476837","f","29","0","1","84","33","98","22","0","1","0","0"
"848.3999998569489","d","31","3","1","85","95","25","76","1","2","1","0"
"1041.2999999523163","k","30","3","0","86","54","68","57","1","2","1","0"
"687.7000000476837","f","28","3","1","87","3","45","17","1","2","0","0"
"786.5999999046326","d","37","3","1","88","1","15","0","0","2","0","0"
"1475.5999999046326","j","0","3","0","89","95","62","56","0","2","1","0"
"600.3000001907349","f","28","3","1","90","92","24","67","0","2","0","0"
"583","f","29","3","1","91","84","36","58","1","2","0","0"
"1082.8999998569489","j","30","3","0","92","42","96","64","1","2","0","0"
"1033.2000000476837","j","0","3","0","93","55","71","48","0","2","1","0"
"1670.0999999046326","k","0","3","0","94","58","0","37","0","2","0","0"
"1201.5","j","0","3","0","95","95","59","53","0","2","1","0"
"1002.0999999046326","f","32","3","1","96","68","33","17","0","2","1","0"
"1244.9000000953674","j","0","3","0","97","86","75","54","0","2","1","0"
"1217","k","0","3","0","98","18","63","33","1","2","0","0"
"1268","f","25","3","1","99","67","0","50","1","2","0","0"
"1167.8000001907349","f","31","3","1","100","25","92","76","1","2","1","0"
"1290.2999999523163","d","38","3","1","101","87","95","41","0","2","0","0"
"1328.0999999046326","j","0","3","0","102","5","4","95","0","2","1","0"
"474.5","d","29","3","1","103","36","52","78","1","2","0","0"
"1053.6000001430511","k","30","3","0","104","14","80","47","1","2","1","0"
"819.2000000476837","d","28","1","1","105","93","8","57","1","3","1","0"
"1186.2000000476837","f","30","1","1","106","4","84","87","0","3","1","0"
"1226.2999999523163","f","31","1","1","107","23","61","12","1","3","0","0"
"1046.1000001430511","f","29","1","1","108","27","4","81","1","3","1","0"
"1265.2999999523163","d","36","1","1","109","99","14","18","0","3","0","0"
"528","d","31","1","1","110","33","5","27","1","3","0","0"
"1395.5999999046326","j","0","1","0","111","76","14","55","1","3","1","0"
"1386.8000001907349","j","30","1","0","112","97","47","72","0","3","0","0"
"734.7000000476837","f","31","1","1","113","93","33","94","1","3","1","0"
"1538.2999999523163","k","30","1","0","114","17","43","9","1","3","1","0"
"1418.2000000476837","j","30","1","0","115","70","63","66","0","3","0","0"
"1114.2999999523163","j","30","1","0","116","39","68","4","0","3","0","0"
"1225.5","k","30","1","0","117","81","94","40","1","3","1","0"
"1095.0999999046326","j","30","1","0","118","59","34","92","0","3","0","0"
"1456.6000001430511","f","29","1","1","119","94","23","53","0","3","0","0"
"1304.1000001430511","k","30","1","0","120","72","76","0","0","3","1","0"
"1755.3999998569489","j","0","1","0","121","34","97","69","0","3","1","0"
"596.4000000953674","d","30","1","1","122","46","4","13","1","3","1","0"
"1193.5","j","30","1","0","123","89","56","45","1","3","0","0"
"541.6999998092651","d","29","1","1","124","44","94","25","0","3","0","0"
"1318.2999999523163","f","35","2","1","125","56","76","11","1","4","0","0"
"1257.2000000476837","k","30","2","0","126","95","73","62","1","4","1","0"
"1085.7999999523163","j","30","2","0","127","82","40","72","1","4","0","0"
"1114.7000000476837","j","30","2","0","128","28","85","32","1","4","0","0"
"1659.7000000476837","k","30","2","0","129","42","60","12","0","4","1","0"
"1241.1000001430511","f","33","2","1","130","35","8","91","0","4","0","0"
"1052.8999998569489","f","37","2","1","131","77","39","83","1","4","1","0"
"1340.4000000953674","d","33","2","1","132","60","33","59","1","4","1","0"
"1293.7000000476837","k","30","2","0","133","76","63","86","0","4","1","0"
"1132.9000000953674","f","37","2","1","134","14","41","10","0","4","1","0"
"1225.1000001430511","j","30","2","0","135","5","95","95","0","4","0","0"
"1294.2999999523163","j","30","2","0","136","67","57","97","0","4","0","0"
"841.5999999046326","f","36","2","1","137","22","74","92","1","4","1","0"
"577.5","f","33","2","1","138","37","59","7","1","4","1","0"
"558.4000000953674","f","33","2","1","139","83","52","69","0","4","1","0"
"1628.2000000476837","k","30","2","0","140","38","8","42","1","4","1","0"
"627.5","d","37","2","1","141","50","91","69","0","4","0","0"
"668.8999998569489","d","33","2","1","142","59","71","35","0","4","0","0"
"1113.8999998569489","j","30","2","0","143","15","34","91","1","4","0","0"
"1154.7999999523163","j","30","2","0","144","99","58","37","0","4","0","0"
"586.5","f","32","4","1","145","11","7","69","0","5","1","0"
"1005.1000001430511","j","30","4","0","146","99","71","38","0","5","0","0"
"443.89999985694885","d","37","4","1","147","88","90","66","0","5","1","0"
"1041.6999998092651","k","30","4","0","148","63","94","70","1","5","1","0"
"491.10000014305115","f","36","4","1","149","8","32","47","0","5","0","0"
"535.9000000953674","f","29","4","1","150","51","90","4","0","5","1","0"
"535","d","36","4","1","151","41","28","20","1","5","0","0"
"974.7999999523163","j","30","4","0","152","22","14","47","1","5","0","0"
"540.8999998569489","d","39","4","1","153","9","64","70","1","5","1","0"
"1466.5999999046326","j","30","4","0","154","65","20","86","0","5","0","0"
"505.60000014305115","d","33","4","1","155","75","81","58","1","5","0","0"
"1520.4000000953674","k","30","4","0","156","45","39","47","1","5","1","0"
"1388.6000001430511","k","30","4","0","157","3","63","84","1","5","1","0"
"1718.3999998569489","j","30","4","0","158","83","21","63","1","5","0","0"
"599.7000000476837","d","32","4","1","159","84","97","65","0","5","0","0"
"1310.0999999046326","k","30","4","0","160","24","36","1","0","5","1","0"
"963.9000000953674","d","31","4","1","161","62","97","25","1","5","0","0"
"1099.4000000953674","k","30","4","0","162","19","23","21","0","5","1","0"
"622.5","d","36","4","1","163","41","32","75","0","5","1","0"
"1344.1999998092651","k","0","4","0","164","73","18","34","1","5","0","0"
"1221.3999998569489","j","0","4","0","165","51","12","79","0","6","1","0"
"1322.7999999523163","k","30","4","0","166","93","14","44","1","6","1","0"
"1487.0999999046326","k","30","4","0","167","69","32","4","1","6","1","0"
"1073.1999998092651","j","30","4","0","168","31","33","61","0","6","0","0"
"936.5999999046326","f","35","4","1","169","68","50","93","1","6","0","0"
"512","d","36","4","1","170","43","50","52","1","6","0","0"
"599.9000000953674","f","32","4","1","171","90","95","48","0","6","0","0"
"824.5","d","32","4","1","172","7","21","36","1","6","1","0"
"1165.2999999523163","k","0","4","0","173","53","49","98","1","6","0","0"
"1029.0999999046326","k","30","4","0","174","53","43","78","0","6","1","0"
"627.5","f","32","4","1","175","56","77","46","0","6","1","0"
"1595.0999999046326","j","30","4","0","176","95","70","8","0","6","0","0"
"450.59999990463257","f","36","4","1","177","35","53","33","0","6","1","0"
"1264.7999999523163","j","30","4","0","178","69","0","59","0","6","0","0"
"1264.0999999046326","k","30","4","0","179","90","44","88","0","6","1","0"
"668.3000001907349","d","39","4","1","180","99","23","67","0","6","1","0"
"473","d","32","4","1","181","7","65","60","1","6","0","0"
"1088.0999999046326","k","30","4","0","182","9","76","2","1","6","1","0"
"765.9000000953674","d","36","4","1","183","53","34","78","1","6","0","0"
"1341.1000001430511","d","28","4","1","184","91","35","49","1","6","0","0"
"949.4000000953674","f","33","2","1","185","72","35","84","0","7","0","0"
"719.0999999046326","d","37","2","1","186","43","53","97","1","7","1","0"
"903.9000000953674","k","30","2","0","187","25","27","70","1","7","1","0"
"855.7000000476837","f","33","2","1","188","86","73","33","0","7","1","0"
"624.2000000476837","f","33","2","1","189","60","34","59","0","7","1","0"
"486.2999999523163","d","37","2","1","190","17","66","87","0","7","1","0"
"1522.8999998569489","j","30","2","0","191","31","44","0","1","7","0","0"
"480.60000014305115","d","35","2","1","192","61","52","57","0","7","1","0"
"1126","k","0","2","0","193","99","62","33","1","7","0","0"
"912.0999999046326","f","36","2","1","194","68","67","92","1","7","0","0"
"1248.7000000476837","j","30","2","0","195","67","56","17","0","7","0","0"
"1234.3999998569489","j","30","2","0","196","62","38","32","0","7","0","0"
"1413.3999998569489","k","30","2","0","197","11","43","57","1","7","1","0"
"1378.9000000953674","k","30","2","0","198","98","15","4","1","7","1","0"
"1058.2999999523163","j","30","2","0","199","95","33","47","1","7","0","0"
"519.2000000476837","d","34","2","1","200","56","16","87","1","7","0","0"
"995.3999998569489","j","30","2","0","201","36","78","47","0","7","0","0"
"491.7999999523163","d","32","2","1","202","83","25","55","1","7","1","0"
"388","d","36","2","1","203","57","74","16","0","7","0","0"
"1360.6000001430511","j","0","2","0","204","54","90","24","0","7","1","0"
"538.6000001430511","f","38","3","1","205","79","9","69","1","8","1","0"
"1784.2999999523163","j","30","3","0","206","34","65","67","1","8","0","0"
"776","d","37","3","1","207","1","11","13","0","8","0","0"
"1789.2000000476837","k","30","3","0","208","85","36","80","1","8","1","0"
"875.0999999046326","j","30","3","0","209","37","74","11","0","8","0","0"
"504.7999999523163","f","32","3","1","210","24","89","68","0","8","0","0"
"897.7999999523163","j","30","3","0","211","74","65","85","1","8","0","0"
"1407.2000000476837","j","30","3","0","212","34","58","71","1","8","0","0"
"1184.2000000476837","k","30","3","0","213","21","11","68","0","8","1","0"
"460.7000000476837","d","35","3","1","214","39","73","91","0","8","1","0"
"1324.0999999046326","k","30","3","0","215","6","52","24","0","8","1","0"
"null","null","-1","3","0","216","78","38","5","0","8","1","0"
"1010.6000001430511","j","30","3","0","217","11","71","19","1","8","0","0"
"935.0999999046326","j","30","3","0","218","59","28","60","1","8","0","0"
"455.2000000476837","f","35","3","1","219","3","14","53","1","8","0","0"
"879.6000001430511","f","31","3","1","220","52","95","18","1","8","1","0"
"624","d","32","3","1","221","3","70","21","0","8","1","0"
"703.2999999523163","f","35","3","1","222","34","39","51","0","8","1","0"
"1129","f","33","3","1","223","90","63","45","0","8","1","0"
"729.9000000953674","d","31","3","1","224","22","5","74","1","8","0","0"
"1205.7000000476837","k","30","0","0","225","62","91","15","0","9","1","0"
"484.2999999523163","f","28","0","1","226","86","84","97","1","9","1","0"
"656","d","31","0","1","227","82","48","26","0","9","1","0"
"1179.2999999523163","j","30","0","0","228","50","24","66","1","9","0","0"
"573.6000001430511","f","26","0","1","229","53","80","55","1","9","1","0"
"412.40000009536743","f","28","0","1","230","16","44","59","1","9","0","0"
"605.5","d","35","0","1","231","87","64","59","0","9","0","0"
"762.9000000953674","f","28","0","1","232","12","52","69","1","9","1","0"
"1372","j","30","0","0","233","89","47","41","1","9","0","0"
"1275.6999998092651","k","30","0","0","234","66","2","23","1","9","1","0"
"1004.5999999046326","j","30","0","0","235","38","91","33","0","9","0","0"
"1572.4000000953674","k","30","0","0","236","68","62","97","1","9","1","0"
"641","f","32","0","1","237","90","40","92","0","9","0","0"
"955.2999999523163","d","32","0","1","238","53","18","59","0","9","0","0"
"962.4000000953674","j","30","0","0","239","56","32","5","1","9","0","0"
"1333.6999998092651","k","30","0","0","240","59","32","88","0","9","1","0"
"1251.5999999046326","j","30","0","0","241","87","82","59","0","9","0","0"
"641.7000000476837","f","32","0","1","242","93","29","18","0","9","0","0"
"1177","j","0","0","0","243","63","64","9","0","9","1","0"
"694","d","32","0","1","244","39","80","12","1","9","1","0"
