"rt","key_press","reward","color_reward_index","type","trial_num","stim_1","stim_2","new_stim","change_index","block","changed","marble_set"
"2363","d","28","0","1","1","84","15","43","0","0","0","1"
"2452","f","32","0","1","2","61","43","85","0","0","0","1"
"969","d","27","0","1","3","21","86","55","0","0","0","1"
"654","f","32","0","1","4","17","66","88","0","0","0","1"
"823","d","30","0","1","5","3","36","90","0","0","0","1"
"688","f","26","0","1","6","80","47","29","0","0","0","1"
"877","d","30","0","1","7","58","50","5","0","0","0","1"
"646","f","26","0","1","8","55","51","39","0","0","0","1"
"734","d","35","0","1","9","9","34","8","0","0","0","1"
"764","f","27","0","1","10","94","90","48","0","0","0","1"
"656","d","27","0","1","11","78","68","35","0","0","0","1"
"1079","f","32","0","1","12","66","39","62","0","0","0","1"
"1095","f","28","0","1","13","41","8","50","0","0","0","1"
"749","d","27","0","1","14","18","42","47","0","0","0","1"
"624","d","35","0","1","15","99","80","27","0","0","0","1"
"283","d","28","0","1","16","84","21","65","0","0","0","1"
"596","f","29","0","1","17","66","94","35","0","0","0","1"
"1751","d","30","0","1","18","92","47","46","0","0","0","1"
"636","f","28","0","1","19","38","46","5","0","0","0","1"
"767","d","32","0","1","20","13","37","34","0","0","0","1"
"4620","k","0","0","0","21","47","66","34","1","0","0","1"
"3531","k","0","0","0","22","5","84","43","1","0","0","1"
"2214","k","30","0","0","23","20","76","84","1","0","1","1"
"1844","j","30","0","0","24","64","5","36","1","0","0","1"
"1515","j","30","0","0","25","26","47","72","0","0","0","1"
"2200","j","30","0","0","26","91","16","24","1","0","0","1"
"2546","k","30","0","0","27","21","78","55","1","0","1","1"
"2281","k","0","0","0","28","63","16","38","0","0","0","1"
"2949","k","0","0","0","29","92","67","12","0","0","0","1"
"1650","k","30","0","0","30","40","94","58","1","0","1","1"
"1772","k","30","0","0","31","62","52","77","0","0","1","1"
"1566","k","30","0","0","32","85","75","97","0","0","1","1"
"1445","k","0","0","0","33","54","88","61","0","0","0","1"
"1491","j","30","0","0","34","75","82","7","0","0","0","1"
"1630","k","30","0","0","35","53","17","67","1","0","1","1"
"1434","k","30","0","0","36","10","69","81","1","0","1","1"
"1360","j","30","0","0","37","19","25","63","0","0","0","1"
"1853","k","0","0","0","38","17","79","38","1","0","0","1"
"1421","k","30","0","0","39","55","89","66","0","0","1","1"
"1626","k","30","0","0","40","21","85","11","0","0","1","1"
"17322","","","","","","","","","","","",""
"9129","","","","","","","","","","","",""
"19559","","","","","","","","","","","",""
"6234","","","","","","","","","","","",""
"null","null","-1","3","1","45","16","29","36","1","0","1","1"
"null","null","-1","3","0","46","76","37","26","0","0","1","1"
"null","null","-1","3","0","47","43","94","93","0","0","0","1"
"1578","d","32","3","1","48","94","5","87","1","0","0","1"
"1357","k","30","3","0","49","82","64","35","0","0","1","1"
"1221","d","32","3","1","50","70","60","24","1","0","1","1"
"1139","d","30","3","1","51","38","27","96","0","0","1","1"
"1327","j","30","3","0","52","86","85","18","0","0","0","1"
"1367","d","32","3","1","53","33","62","71","1","0","1","1"
"1438","d","31","3","1","54","7","61","43","1","0","0","1"
"1313","d","31","3","1","55","31","15","24","1","0","1","1"
"1281","j","30","3","0","56","72","23","27","0","0","0","1"
"1296","d","32","3","1","57","98","65","19","1","0","1","1"
"1187","j","30","3","0","58","74","92","15","0","0","0","1"
"1372","k","0","3","0","59","67","10","59","1","0","0","1"
"1279","d","32","3","1","60","6","81","60","1","0","0","1"
"1520","j","30","3","0","61","14","88","37","0","0","0","1"
"1141","d","31","3","1","62","34","44","67","0","0","0","1"
"1225","k","30","3","0","63","75","30","58","0","0","1","1"
"1203","k","30","3","0","64","39","36","44","1","0","1","1"
"1218","d","37","2","1","65","66","64","46","0","1","1","1"
"1199","d","34","2","1","66","56","66","81","1","1","1","1"
"1376","k","0","2","0","67","96","15","5","1","1","0","1"
"1251","j","30","2","0","68","26","83","54","0","1","0","1"
"1390","d","32","2","1","69","90","52","13","0","1","1","1"
"1439","k","0","2","0","70","77","46","31","1","1","0","1"
"1356","j","30","2","0","71","87","67","98","0","1","0","1"
"1437","j","30","2","0","72","61","15","80","1","1","0","1"
"1406","d","31","2","1","73","5","6","93","1","1","0","1"
"1264","d","32","2","1","74","90","49","17","0","1","1","1"
"1343","d","31","2","1","75","72","71","55","0","1","0","1"
"1266","j","30","2","0","76","64","46","86","0","1","0","1"
"1422","k","30","2","0","77","31","15","54","1","1","1","1"
"1503","d","33","2","1","78","73","42","54","0","1","1","1"
"1236","d","32","2","1","79","62","76","83","1","1","1","1"
"1992","d","40","2","1","80","99","80","74","0","1","1","1"
"1081","j","30","2","0","81","71","5","7","0","1","0","1"
"1283","d","34","2","1","82","94","39","72","1","1","1","1"
"1484","k","0","2","0","83","49","69","73","1","1","0","1"
"981","k","30","2","0","84","92","70","39","1","1","1","1"
"1531","k","30","2","0","85","48","88","46","0","2","1","1"
"1076","j","30","2","0","86","4","87","79","0","2","0","1"
"1198","k","0","2","0","87","25","2","62","1","2","0","1"
"1320","k","30","2","0","88","74","79","51","0","2","1","1"
"1258","d","33","2","1","89","65","58","2","0","2","0","1"
"1295","d","31","2","1","90","69","98","24","0","2","1","1"
"1196","k","0","2","0","91","81","32","27","1","2","0","1"
"null","null","-1","2","1","92","87","51","3","1","2","1","1"
"1686","f","35","2","1","93","82","7","57","0","2","0","1"
"1295","f","34","2","1","94","46","89","62","1","2","1","1"
"1487","j","0","2","0","95","59","88","24","0","2","1","1"
"1484","k","30","2","0","96","46","0","45","0","2","1","1"
"1813","j","30","2","0","97","27","43","16","1","2","0","1"
"1189","d","31","2","1","98","5","1","68","1","2","0","1"
"1248","f","33","2","1","99","87","12","70","0","2","0","1"
"1066","d","36","2","1","100","67","64","16","0","2","0","1"
"1233","d","33","2","1","101","59","7","26","1","2","1","1"
"1357","k","0","2","0","102","85","74","27","1","2","0","1"
"1384","j","0","2","0","103","17","84","47","1","2","1","1"
"1375","d","33","2","1","104","65","80","1","1","2","1","1"
"1126","d","26","3","1","105","11","29","42","0","3","0","1"
"1095","d","32","3","1","106","15","19","3","1","3","1","1"
"1715","j","0","3","0","107","8","35","12","1","3","1","1"
"1219","d","28","3","1","108","27","68","97","1","3","0","1"
"1108","d","33","3","1","109","57","10","3","0","3","1","1"
"751","d","35","3","1","110","66","19","10","0","3","1","1"
"1964","j","30","3","0","111","99","8","54","0","3","0","1"
"1185","d","29","3","1","112","83","85","63","1","3","1","1"
"1094","d","26","3","1","113","11","47","40","0","3","1","1"
"1388","j","30","3","0","114","20","30","53","1","3","0","1"
"1031","j","0","3","0","115","83","68","65","0","3","1","1"
"1419","k","0","3","0","116","8","91","55","1","3","0","1"
"1313","k","0","3","0","117","93","49","34","1","3","0","1"
"1312","f","28","3","1","118","9","5","74","0","3","0","1"
"1203","d","34","3","1","119","58","28","5","0","3","1","1"
"1013","d","32","3","1","120","33","21","76","1","3","0","1"
"1377","j","30","3","0","121","17","56","26","0","3","0","1"
"1199","j","0","3","0","122","41","18","22","0","3","1","1"
"1233","k","30","3","0","123","67","79","81","1","3","1","1"
"1397","k","0","3","0","124","54","47","85","1","3","0","1"
"1326","k","30","4","0","125","3","36","93","1","4","1","1"
"1442","k","30","4","0","126","9","97","96","0","4","1","1"
"1127","d","31","4","1","127","62","44","25","0","4","0","1"
"1213","d","36","4","1","128","53","78","35","0","4","0","1"
"1312","d","31","4","1","129","28","22","53","0","4","1","1"
"1295","d","30","4","1","130","5","54","14","0","4","1","1"
"null","null","-1","4","0","131","40","65","35","1","4","0","1"
"1168","j","0","4","0","132","29","5","4","1","4","1","1"
"1228","k","30","4","0","133","24","67","6","1","4","1","1"
"1363","k","0","4","0","134","29","62","92","1","4","0","1"
"1300","j","30","4","0","135","38","45","21","0","4","0","1"
"1343","d","31","4","1","136","81","46","54","1","4","1","1"
"966","d","31","4","1","137","44","32","59","1","4","1","1"
"1483","k","30","4","0","138","81","60","46","1","4","1","1"
"1468","k","0","4","0","139","67","78","96","1","4","0","1"
"1437","d","31","4","1","140","55","49","43","0","4","0","1"
"1015","d","28","4","1","141","16","35","88","0","4","0","1"
"1464","d","30","4","1","142","97","0","21","0","4","1","1"
"1479","j","30","4","0","143","68","46","54","1","4","0","1"
"1987","d","36","4","1","144","66","63","30","0","4","0","1"
"1249","d","29","1","1","145","23","87","43","1","5","1","1"
"1373","k","0","1","0","146","41","40","76","1","5","0","1"
"1263","k","30","1","0","147","14","94","78","1","5","1","1"
"1577","k","0","1","0","148","35","56","41","1","5","0","1"
"1681","k","0","1","0","149","70","68","45","1","5","0","1"
"1292","d","33","1","1","150","17","49","56","0","5","1","1"
"1264","d","28","1","1","151","30","82","62","1","5","0","1"
"1419","d","32","1","1","152","67","28","72","0","5","0","1"
"1156","d","27","1","1","153","86","4","58","0","5","0","1"
"1516","k","0","1","0","154","34","38","12","1","5","0","1"
"1405","d","28","1","1","155","85","28","68","0","5","0","1"
"null","null","-1","1","0","156","25","58","71","0","5","0","1"
"1424","d","28","1","1","157","69","26","61","0","5","1","1"
"1574","d","33","1","1","158","14","92","59","0","5","1","1"
"null","null","-1","1","0","159","9","2","51","0","5","1","1"
"1139","d","28","1","1","160","5","1","4","0","5","0","1"
"1530","k","30","1","0","161","97","86","80","1","5","1","1"
"1154","d","27","1","1","162","71","46","77","1","5","1","1"
"1327","k","30","1","0","163","4","44","23","0","5","1","1"
"1372","k","30","1","0","164","49","7","77","1","5","1","1"
"1263","d","30","1","1","165","7","25","17","1","6","0","1"
"1248","d","30","1","1","166","42","78","1","1","6","1","1"
"1187","d","32","1","1","167","49","55","77","0","6","1","1"
"1221","d","28","1","1","168","90","41","67","0","6","1","1"
"1753","j","0","1","0","169","69","94","77","1","6","1","1"
"1107","k","0","1","0","170","29","51","27","0","6","0","1"
"1310","d","29","1","1","171","78","75","84","1","6","1","1"
"1375","j","0","1","0","172","93","50","53","0","6","1","1"
"1377","d","32","1","1","173","96","38","32","1","6","0","1"
"968","d","27","1","1","174","91","55","96","1","6","0","1"
"891","d","32","1","1","175","79","10","51","0","6","1","1"
"1321","k","30","1","0","176","45","50","7","1","6","1","1"
"968","d","27","1","1","177","91","10","19","1","6","0","1"
"1218","k","0","1","0","178","25","35","8","1","6","0","1"
"876","d","32","1","1","179","64","54","46","1","6","0","1"
"1178","j","30","1","0","180","48","92","21","0","6","0","1"
"1592","k","30","1","0","181","46","56","8","0","6","1","1"
"1356","k","30","1","0","182","21","49","44","0","6","1","1"
"1305","j","30","1","0","183","56","10","41","0","6","0","1"
"1093","j","30","1","0","184","68","47","93","0","6","0","1"
"1456","d","34","4","1","185","98","74","93","0","7","1","1"
"null","null","-1","4","0","186","58","54","35","1","7","0","1"
"1376","j","30","4","0","187","22","72","2","1","7","0","1"
"1330","d","31","4","1","188","35","44","98","0","7","0","1"
"1279","k","0","4","0","189","11","84","27","1","7","0","1"
"1249","j","30","4","0","190","50","16","15","0","7","0","1"
"1535","k","30","4","0","191","76","45","83","0","7","1","1"
"1314","k","30","4","0","192","32","7","93","1","7","1","1"
"1240","d","39","4","1","193","9","84","68","1","7","1","1"
"1740","d","32","4","1","194","77","43","7","0","7","1","1"
"1456","j","0","4","0","195","70","69","16","1","7","1","1"
"1313","f","36","4","1","196","57","32","53","0","7","0","1"
"1250","f","34","4","1","197","95","94","91","1","7","0","1"
"null","null","-1","4","1","198","69","91","96","1","7","0","1"
"1483","k","30","4","0","199","24","9","11","0","7","1","1"
"1216","d","32","4","1","200","95","26","65","0","7","0","1"
"1341","k","30","4","0","201","83","76","34","0","7","1","1"
"1312","k","30","4","0","202","19","0","34","1","7","1","1"
"1296","d","32","4","1","203","84","5","82","1","7","1","1"
"1139","d","33","4","1","204","3","4","32","0","7","0","1"
"1298","j","30","0","0","205","86","0","47","0","8","0","1"
"1189","d","26","0","1","206","91","59","61","0","8","1","1"
"1453","d","30","0","1","207","77","34","22","1","8","0","1"
"1344","k","30","0","0","208","65","28","85","0","8","1","1"
"1200","d","31","0","1","209","82","33","29","1","8","0","1"
"1062","k","0","0","0","210","62","14","81","1","8","0","1"
"1311","d","28","0","1","211","4","73","18","0","8","1","1"
"1219","j","30","0","0","212","87","51","61","0","8","0","1"
"1351","d","28","0","1","213","42","76","43","0","8","0","1"
"1392","d","27","0","1","214","28","38","41","1","8","1","1"
"1365","j","0","0","0","215","72","86","78","1","8","1","1"
"1186","d","28","0","1","216","34","64","27","0","8","0","1"
"1233","k","30","0","0","217","94","4","11","0","8","1","1"
"1235","d","30","0","1","218","70","32","50","1","8","1","1"
"1156","k","0","0","0","219","47","5","12","1","8","0","1"
"1641","j","0","0","0","220","11","65","35","1","8","1","1"
"1651","k","30","0","0","221","3","38","79","0","8","1","1"
"1343","k","30","0","0","222","5","90","88","1","8","1","1"
"1765","d","27","0","1","223","78","25","0","0","8","0","1"
"1171","d","32","0","1","224","50","49","7","1","8","0","1"
"1141","d","29","0","1","225","94","77","70","0","9","0","1"
"1167","d","32","0","1","226","17","18","96","0","9","0","1"
"1720","k","0","0","0","227","14","8","76","1","9","0","1"
"1655","k","30","0","0","228","33","90","80","0","9","1","1"
"1514","d","35","0","1","229","99","61","42","0","9","1","1"
"1267","d","30","0","1","230","77","19","66","1","9","1","1"
"1341","k","0","0","0","231","66","45","69","1","9","0","1"
"1891","d","31","0","1","232","57","88","28","1","9","1","1"
"1139","d","27","0","1","233","37","1","52","0","9","0","1"
"1516","k","0","0","0","234","4","27","74","1","9","0","1"
"1236","j","30","0","0","235","86","76","54","0","9","0","1"
"1236","d","26","0","1","236","5","95","77","1","9","1","1"
"1250","d","29","0","1","237","33","64","18","0","9","0","1"
"1339","k","0","0","0","238","66","24","49","1","9","0","1"
"1218","d","31","0","1","239","88","31","2","0","9","0","1"
"1438","k","30","0","0","240","74","42","2","0","9","1","1"
"1328","k","30","0","0","241","14","24","35","1","9","1","1"
"1390","k","30","0","0","242","77","74","4","1","9","1","1"
"1062","d","26","0","1","243","16","9","12","0","9","1","1"
"1316","k","30","0","0","244","70","94","16","1","9","1","1"
