"rt","key_press","reward","color_reward_index","type","trial_num","stim_1","stim_2","new_stim","change_index","block","changed","marble_set"
"14965","d","32","0","1","1","43","49","9","0","0","0","5"
"786","d","27","0","1","2","83","72","5","0","0","0","5"
"873","d","29","0","1","3","89","84","0","0","0","0","5"
"1169","d","26","0","1","4","47","76","50","0","0","0","5"
"1282","d","26","0","1","5","91","17","70","0","0","0","5"
"3045","d","31","0","1","6","67","2","8","0","0","0","5"
"1060","d","27","0","1","7","20","19","36","0","0","0","5"
"1014","d","32","0","1","8","40","62","51","0","0","0","5"
"606","d","27","0","1","9","62","49","35","0","0","0","5"
"1167","d","26","0","1","10","16","86","4","0","0","0","5"
"14951","d","32","0","1","11","66","17","55","0","0","0","5"
"3434","d","32","0","1","12","40","56","84","0","0","0","5"
"827","d","35","0","1","13","87","40","8","0","0","0","5"
"1312","d","27","0","1","14","28","73","11","0","0","0","5"
"1747","d","28","0","1","15","60","85","87","0","0","0","5"
"905","d","31","0","1","16","14","73","71","0","0","0","5"
"872","d","27","0","1","17","45","75","37","0","0","0","5"
"950","d","29","0","1","18","98","40","88","0","0","0","5"
"47889","d","26","0","1","19","51","27","61","0","0","0","5"
"725","d","27","0","1","20","27","60","87","0","0","0","5"
"3044","k","30","0","0","21","17","4","69","0","0","1","5"
"4654","k","0","0","0","22","49","14","1","0","0","0","5"
"950","k","0","0","0","23","13","97","93","1","0","0","5"
"2398","k","30","0","0","24","46","44","18","1","0","1","5"
"2279","k","30","0","0","25","99","96","62","0","0","1","5"
"185","k","0","0","0","26","21","32","28","0","0","0","5"
"749","k","0","0","0","27","85","86","48","1","0","0","5"
"7","k","0","0","0","28","93","78","98","0","0","0","5"
"5827","k","0","0","0","29","94","9","59","1","0","0","5"
"2123","k","30","0","0","30","10","84","81","0","0","1","5"
"3155","k","0","0","0","31","69","88","3","0","0","0","5"
"966","k","30","0","0","32","10","88","69","1","0","1","5"
"9091","k","0","0","0","33","94","56","28","0","0","0","5"
"2006","k","0","0","0","34","84","83","95","1","0","0","5"
"3449","k","0","0","0","35","38","80","34","0","0","0","5"
"857","k","30","0","0","36","96","12","34","1","0","1","5"
"904","k","0","0","0","37","94","13","75","1","0","0","5"
"1062","k","30","0","0","38","49","28","22","0","0","1","5"
"810","k","30","0","0","39","26","37","24","1","0","1","5"
"824","k","30","0","0","40","94","72","10","1","0","1","5"
"6749","","","","","","","","","","","",""
"3850","","","","","","","","","","","",""
"1967","k","0","3","0","43","56","8","84","0","0","0","5"
"840","k","30","3","0","44","34","41","15","1","0","1","5"
"null","null","-1","3","1","45","31","0","36","1","0","0","5"
"null","null","-1","3","1","46","26","44","83","0","0","0","5"
"null","null","-1","3","1","47","29","85","74","0","0","1","5"
"null","null","-1","3","0","48","15","62","19","1","0","0","5"
"1120","d","34","3","1","49","58","70","32","0","0","1","5"
"904","k","0","3","0","50","68","71","27","0","0","0","5"
"761","k","30","3","0","51","91","4","22","1","0","1","5"
"733","k","30","3","0","52","35","60","46","1","0","1","5"
"1043","d","27","3","1","53","71","91","52","1","0","0","5"
"1088","d","35","3","1","54","66","55","72","0","0","0","5"
"null","null","-1","3","1","55","68","89","66","1","0","0","5"
"null","null","-1","3","1","56","25","48","24","0","0","1","5"
"null","null","-1","3","0","57","12","44","49","1","0","1","5"
"null","null","-1","3","1","58","71","67","30","1","0","1","5"
"825","k","30","3","0","59","28","56","68","1","0","1","5"
"null","null","-1","3","0","60","28","49","55","0","0","0","5"
"null","null","-1","3","0","61","59","35","68","0","0","1","5"
"764","d","35","3","1","62","82","27","63","0","0","0","5"
"107","d","31","1","1","63","61","86","45","1","1","0","5"
"null","null","-1","1","1","64","61","14","42","0","1","0","5"
"66","k","30","1","0","65","54","6","69","1","1","1","5"
"1171","d","33","1","1","66","17","53","35","1","1","1","5"
"699","f","28","1","1","67","92","27","86","1","1","1","5"
"1669","k","0","1","0","68","86","39","83","1","1","0","5"
"90","f","32","1","1","69","30","67","82","0","1","1","5"
"null","null","-1","1","0","70","36","35","11","1","1","0","5"
"null","null","-1","1","0","71","79","46","27","0","1","1","5"
"null","null","-1","1","0","72","10","32","58","1","1","0","5"
"null","null","-1","1","1","73","36","91","90","0","1","1","5"
"null","null","-1","1","1","74","84","67","82","0","1","1","5"
"null","null","-1","1","0","75","59","57","43","0","1","1","5"
"null","null","-1","1","1","76","80","96","35","0","1","1","5"
"null","null","-1","1","0","77","26","58","52","0","1","0","5"
"null","null","-1","1","1","78","69","9","49","1","1","0","5"
"null","null","-1","1","0","79","15","25","46","1","1","0","5"
"null","null","-1","1","0","80","20","10","57","0","1","1","5"
"null","null","-1","1","0","81","23","39","45","1","1","0","5"
"null","null","-1","1","1","82","95","38","34","0","1","0","5"
"279","k","30","1","0","83","31","46","95","0","2","1","5"
"1794","d","32","1","1","84","67","37","65","0","2","0","5"
"733","k","30","1","0","85","58","42","36","1","2","1","5"
"935","k","0","1","0","86","48","40","88","1","2","0","5"
"1115","k","30","1","0","87","8","33","57","1","2","1","5"
"855","f","29","1","1","88","43","28","53","0","2","0","5"
"608","f","29","1","1","89","77","59","61","1","2","1","5"
"null","null","-1","1","1","90","90","91","67","1","2","1","5"
"528","f","32","1","1","91","52","49","13","1","2","1","5"
"716","k","0","1","0","92","32","18","39","1","2","0","5"
"570","f","33","1","1","93","69","32","51","0","2","1","5"
"20","k","0","1","0","94","89","81","74","0","2","0","5"
"1130","k","0","1","0","95","48","29","13","1","2","0","5"
"1643","k","30","1","0","96","24","7","23","0","2","1","5"
"null","null","-1","1","1","97","26","25","71","0","2","1","5"
"731","k","0","1","0","98","74","45","25","0","2","0","5"
"872","f","28","1","1","99","16","85","17","1","2","0","5"
"171","k","30","1","0","100","93","31","97","0","2","1","5"
"997","f","28","1","1","101","21","27","39","0","2","0","5"
"689","f","32","1","1","102","46","96","22","1","2","0","5"
"1147","k","0","2","0","103","2","24","38","0","3","0","5"
"250","d","32","2","1","104","20","86","48","0","3","1","5"
"71","k","0","2","0","105","49","63","86","1","3","0","5"
"1170","k","30","2","0","106","99","26","71","0","3","1","5"
"1011","k","0","2","0","107","14","2","98","0","3","0","5"
"744","d","35","2","1","108","7","24","35","1","3","0","5"
"206","f","37","2","1","109","57","53","59","1","3","1","5"
"985","d","33","2","1","110","55","42","33","1","3","0","5"
"1201","f","35","2","1","111","96","70","13","1","3","1","5"
"686","k","30","2","0","112","54","80","48","0","3","1","5"
"621","f","32","2","1","113","55","48","12","0","3","0","5"
"null","null","-1","2","0","114","75","88","83","0","3","0","5"
"622","k","0","2","0","115","76","12","28","1","3","0","5"
"810","k","0","2","0","116","45","89","22","0","3","0","5"
"452","f","36","2","1","117","21","74","3","1","3","1","5"
"637","f","37","2","1","118","13","10","17","1","3","1","5"
"607","k","0","2","0","119","72","77","47","0","3","0","5"
"267","f","31","2","1","120","3","5","76","1","3","1","5"
"1065","k","30","2","0","121","80","88","28","1","3","1","5"
"295","f","33","2","1","122","86","2","44","0","3","1","5"
"701","k","30","0","0","123","73","91","15","1","4","1","5"
"713","k","30","0","0","124","67","57","30","0","4","1","5"
"106","k","30","0","0","125","77","65","37","1","4","1","5"
"null","null","-1","0","1","126","94","0","5","1","4","1","5"
"1082","k","30","0","0","127","88","23","20","0","4","1","5"
"527","k","30","0","0","128","3","67","7","1","4","1","5"
"778","d","35","0","1","129","99","87","32","0","4","0","5"
"983","d","31","0","1","130","14","68","17","1","4","0","5"
"733","k","30","0","0","131","26","86","68","1","4","1","5"
"1365","d","30","0","1","132","3","42","2","0","4","0","5"
"419","d","30","0","1","133","7","66","66","1","4","1","5"
"1278","k","0","0","0","134","79","95","83","0","4","0","5"
"106","d","28","0","1","135","38","33","70","1","4","0","5"
"1499","d","26","0","1","136","91","55","79","0","4","0","5"
"733","k","0","0","0","137","75","53","9","0","4","0","5"
"934","k","0","0","0","138","51","13","92","0","4","0","5"
"1263","d","28","0","1","139","59","74","6","0","4","0","5"
"1232","k","30","0","0","140","95","38","9","1","4","1","5"
"730","d","26","0","1","141","72","22","27","1","4","1","5"
"530","d","28","0","1","142","38","97","32","0","4","0","5"
"1024","d","38","4","1","143","13","55","19","1","5","0","5"
"626","k","30","4","0","144","65","38","97","0","5","1","5"
"763","k","30","4","0","145","90","92","71","0","5","1","5"
"652","k","30","4","0","146","47","85","45","0","5","1","5"
"467","d","40","4","1","147","19","76","67","1","5","1","5"
"617","k","0","4","0","148","55","21","0","1","5","0","5"
"575","d","31","4","1","149","23","67","45","1","5","1","5"
"842","k","0","4","0","150","66","84","47","0","5","0","5"
"1138","d","32","4","1","151","46","97","71","1","5","0","5"
"998","d","31","4","1","152","35","96","71","1","5","1","5"
"822","d","29","4","1","153","30","10","97","1","5","0","5"
"1060","d","29","4","1","154","27","62","49","0","5","1","5"
"329","d","31","4","1","155","83","6","69","0","5","0","5"
"1469","k","0","4","0","156","13","25","33","1","5","0","5"
"683","k","30","4","0","157","30","59","51","0","5","1","5"
"763","k","30","4","0","158","81","32","3","1","5","1","5"
"654","k","0","4","0","159","65","46","30","0","5","0","5"
"217","d","31","4","1","160","38","14","35","0","5","1","5"
"1027","k","0","4","0","161","74","34","2","1","5","0","5"
"1358","d","35","4","1","162","40","45","37","0","5","0","5"
"1155","d","27","0","1","163","62","91","86","1","6","1","5"
"776","k","0","0","0","164","90","28","27","0","6","0","5"
"654","k","30","0","0","165","55","31","82","1","6","1","5"
"1060","k","30","0","0","166","71","53","28","0","6","1","5"
"870","k","0","0","0","167","96","78","10","1","6","0","5"
"1057","k","0","0","0","168","56","66","49","1","6","0","5"
"785","k","30","0","0","169","69","38","71","0","6","1","5"
"995","d","30","0","1","170","3","65","76","0","6","1","5"
"1202","d","26","0","1","171","51","26","42","1","6","0","5"
"1012","d","27","0","1","172","30","86","54","1","6","1","5"
"1826","d","28","0","1","173","35","38","65","0","6","0","5"
"1264","k","0","0","0","174","67","45","97","0","6","0","5"
"653","k","30","0","0","175","85","73","10","1","6","1","5"
"1530","d","26","0","1","176","97","0","75","1","6","0","5"
"963","d","26","0","1","177","16","85","55","1","6","1","5"
"138","d","28","0","1","178","46","69","81","0","6","0","5"
"1856","d","30","0","1","179","95","49","89","0","6","0","5"
"82","k","30","0","0","180","34","27","43","0","6","1","5"
"31","d","30","0","1","181","76","74","36","1","6","0","5"
"763","k","30","0","0","182","4","92","26","0","6","1","5"
"243","f","30","4","1","183","41","24","51","0","7","1","5"
"199","k","0","4","0","184","23","50","43","0","7","0","5"
"null","null","-1","4","0","185","71","40","13","1","7","1","5"
"null","null","-1","4","1","186","83","36","65","1","7","1","5"
"72","f","32","4","1","187","17","7","42","1","7","0","5"
"655","k","30","4","0","188","36","24","56","1","7","1","5"
"856","f","31","4","1","189","49","55","12","0","7","0","5"
"514","f","33","4","1","190","24","6","41","1","7","0","5"
"542","d","32","4","1","191","2","31","28","1","7","1","5"
"825","f","36","4","1","192","92","29","19","0","7","1","5"
"1030","f","35","4","1","193","54","10","92","1","7","0","5"
"668","k","0","4","0","194","58","70","52","0","7","0","5"
"779","k","0","4","0","195","91","66","21","1","7","0","5"
"779","k","30","4","0","196","29","25","35","1","7","1","5"
"237","k","30","4","0","197","2","18","17","0","7","1","5"
"null","null","-1","4","0","198","72","70","52","1","7","1","5"
"1244","k","0","4","0","199","44","86","25","0","7","0","5"
"46","d","33","4","1","200","70","19","94","0","7","0","5"
"497","k","0","4","0","201","33","51","75","0","7","0","5"
"372","f","35","4","1","202","73","50","5","0","7","1","5"
"569","f","33","3","1","203","94","64","84","0","8","1","5"
"701","k","0","3","0","204","20","56","86","1","8","0","5"
"733","k","30","3","0","205","84","28","55","1","8","1","5"
"107","d","32","3","1","206","94","86","22","0","8","0","5"
"305","f","28","3","1","207","36","30","6","0","8","1","5"
"434","k","0","3","0","208","81","24","52","1","8","0","5"
"549","f","34","3","1","209","46","50","27","1","8","0","5"
"636","k","30","3","0","210","37","78","39","0","8","1","5"
"433","f","33","3","1","211","75","64","74","0","8","1","5"
"654","k","0","3","0","212","60","13","53","1","8","0","5"
"108","k","0","3","0","213","19","45","33","0","8","0","5"
"763","k","0","3","0","214","39","89","63","0","8","0","5"
"199","k","30","3","0","215","85","65","80","0","8","1","5"
"1982","f","35","3","1","216","35","39","83","1","8","1","5"
"624","k","30","3","0","217","75","11","80","0","8","1","5"
"1840","f","30","3","1","218","64","73","98","1","8","0","5"
"967","f","31","3","1","219","79","46","54","1","8","1","5"
"1169","f","29","3","1","220","64","78","57","1","8","0","5"
"1981","d","28","3","1","221","18","17","73","1","8","1","5"
"606","k","0","3","0","222","61","89","49","0","8","0","5"
"268","f","37","2","1","223","12","50","42","1","9","1","5"
"1310","k","0","2","0","224","79","86","18","1","9","0","5"
"1315","k","0","2","0","225","22","48","38","0","9","0","5"
"399","k","0","2","0","226","62","63","25","1","9","0","5"
"950","f","31","2","1","227","31","24","53","0","9","0","5"
"186","f","33","2","1","228","49","73","76","0","9","0","5"
"747","k","30","2","0","229","71","22","40","0","9","1","5"
"171","k","0","2","0","230","19","62","67","1","9","0","5"
"946","k","30","2","0","231","25","79","57","0","9","1","5"
"935","f","31","2","1","232","64","71","12","0","9","0","5"
"843","f","33","2","1","233","73","44","59","1","9","0","5"
"715","k","0","2","0","234","48","41","67","0","9","0","5"
"808","d","32","2","1","235","28","46","65","1","9","1","5"
"null","null","-1","2","0","236","36","3","0","0","9","0","5"
"225","f","33","2","1","237","25","52","97","0","9","1","5"
"1418","k","30","2","0","238","98","80","7","0","9","1","5"
"1012","f","31","2","1","239","63","69","39","1","9","1","5"
"624","k","30","2","0","240","13","60","78","1","9","1","5"
"1169","f","33","2","1","241","49","2","10","1","9","1","5"
"919","d","33","2","1","242","52","42","84","1","9","1","5"
