"rt","key_press","reward","color_reward_index","type","trial_num","stim_1","stim_2","new_stim","change_index","block","changed","marble_set"
"1748.5","f","32","0","1","1","8","40","34","0","0","0","0"
"1451.6000000089407","f","28","0","1","2","57","52","82","0","0","0","0"
"989.7999999970198","f","27","0","1","3","2","45","95","0","0","0","0"
"867.9000000059605","f","27","0","1","4","98","37","87","0","0","0","0"
"1716.9000000059605","f","35","0","1","5","14","87","2","0","0","0","0"
"1036.5999999940395","f","26","0","1","6","9","51","87","0","0","0","0"
"6486.399999991059","f","32","0","1","7","27","32","45","0","0","0","0"
"1812.2999999970198","f","28","0","1","8","81","73","88","0","0","0","0"
"5652.5999999940395","f","31","0","1","9","70","67","57","0","0","0","0"
"3612.4000000059605","f","32","0","1","10","52","53","6","0","0","0","0"
"996.2999999970198","f","32","0","1","11","88","50","43","0","0","0","0"
"1724.800000011921","f","32","0","1","12","5","40","97","0","0","0","0"
"1340.9000000059605","f","28","0","1","13","41","46","76","0","0","0","0"
"1157.4000000059605","f","26","0","1","14","12","71","83","0","0","0","0"
"965.1999999880791","f","28","0","1","15","42","55","12","0","0","0","0"
"1420.6000000089407","f","26","0","1","16","60","47","66","0","0","0","0"
"836.7000000029802","f","29","0","1","17","75","56","83","0","0","0","0"
"835.1000000089407","f","27","0","1","18","89","45","85","0","0","0","0"
"733.0999999940395","f","32","0","1","19","70","43","24","0","0","0","0"
"757.4000000059605","f","27","0","1","20","76","68","94","0","0","0","0"
"1348.7999999970198","k","0","0","0","21","32","43","46","0","0","0","0"
"780.8999999910593","k","30","0","0","22","4","88","46","1","0","1","0"
"1404.4000000059605","k","0","0","0","23","1","80","55","0","0","0","0"
"1109.4000000059605","k","0","0","0","24","14","93","80","0","0","0","0"
"709.0999999940395","k","30","0","0","25","79","6","58","0","0","1","0"
"486.20000000298023","k","0","0","0","26","63","64","57","1","0","0","0"
"341.20000000298023","k","30","0","0","27","57","48","85","0","0","1","0"
"1484.8999999910593","k","30","0","0","28","7","49","20","1","0","1","0"
"765.0999999940395","k","30","0","0","29","92","23","94","0","0","1","0"
"2580.2000000029802","k","30","0","0","30","43","73","1","1","0","1","0"
"1045.2000000029802","k","30","0","0","31","66","38","4","1","0","1","0"
"621.7000000029802","k","0","0","0","32","38","78","75","0","0","0","0"
"1085.7999999970198","k","30","0","0","33","78","38","70","1","0","1","0"
"1092.5","k","0","0","0","34","65","39","58","0","0","0","0"
"804","k","0","0","0","35","23","54","92","1","0","0","0"
"2124.7999999970198","k","30","0","0","36","70","88","78","1","0","1","0"
"709.6000000089407","k","0","0","0","37","72","18","30","0","0","0","0"
"982.8000000119209","k","30","0","0","38","63","1","29","0","0","1","0"
"933","k","0","0","0","39","35","32","73","1","0","0","0"
"805.3999999910593","k","0","0","0","40","85","47","87","0","0","0","0"
"4725.600000008941","","","","","","","","","","","",""
"3055.6000000089407","","","","","","","","","","","",""
"null","null","-1","3","0","43","18","19","46","0","0","0","0"
"1519.1000000089407","f","31","3","1","44","85","46","25","1","0","0","0"
"918.7000000029802","k","30","3","0","45","21","30","0","0","0","1","0"
"897.3999999910593","f","31","3","1","46","62","42","55","0","0","1","0"
"null","null","-1","3","1","47","70","8","69","1","0","1","0"
"1663.0999999940395","k","30","3","0","48","95","44","11","0","0","1","0"
"768","k","30","3","0","49","36","54","21","1","0","1","0"
"1016.7000000029802","f","35","3","1","50","53","14","80","1","0","0","0"
"934.7000000029802","f","31","3","1","51","37","60","12","0","0","1","0"
"996.6000000089407","k","0","3","0","52","77","13","4","0","0","0","0"
"959.2999999970198","k","0","3","0","53","55","45","79","1","0","0","0"
"1343.800000011921","f","32","3","1","54","45","89","72","0","0","0","0"
"883.4000000059605","k","0","3","0","55","92","86","1","1","0","0","0"
"857.3999999910593","k","30","3","0","56","86","62","90","1","0","1","0"
"911.2999999970198","k","0","3","0","57","56","42","86","0","0","0","0"
"1014.0999999940395","k","30","3","0","58","5","20","33","0","0","1","0"
"895.5","f","34","3","1","59","8","10","18","0","0","0","0"
"1048.0999999940395","f","32","3","1","60","32","6","98","1","0","0","0"
"1111.699999988079","f","30","3","1","61","7","12","25","1","0","1","0"
"846.2000000029802","f","32","3","1","62","38","94","1","1","0","1","0"
"1192.2999999970198","k","30","1","0","63","62","44","20","1","1","1","0"
"928.0999999940395","k","30","1","0","64","27","22","21","0","1","1","0"
"941.1000000089407","k","30","1","0","65","7","57","15","1","1","1","0"
"895.9000000059605","k","30","1","0","66","36","27","0","1","1","1","0"
"1470.300000011921","f","31","1","1","67","60","15","26","0","1","1","0"
"1022.7000000029802","k","0","1","0","68","88","4","53","0","1","0","0"
"1040.3999999910593","k","30","1","0","69","57","84","81","0","1","1","0"
"1560","k","0","1","0","70","85","43","6","1","1","0","0"
"1391","f","29","1","1","71","76","35","75","0","1","0","0"
"790.7000000029802","k","30","1","0","72","91","46","25","0","1","1","0"
"767.7000000029802","k","30","1","0","73","48","75","15","1","1","1","0"
"1104.0999999940395","f","31","1","1","74","10","6","57","1","1","0","0"
"814.6000000089407","f","32","1","1","75","42","40","22","1","1","0","0"
"1248.2999999970198","f","36","1","1","76","88","19","36","0","1","0","0"
"966.1000000089407","k","0","1","0","77","82","81","14","0","1","0","0"
"null","null","-1","1","1","78","43","95","75","1","1","0","0"
"1384.800000011921","f","28","1","1","79","98","69","92","0","1","0","0"
"984","f","32","1","1","80","92","40","11","1","1","1","0"
"1425","f","31","1","1","81","6","61","64","0","1","0","0"
"943.1000000089407","f","29","1","1","82","5","21","72","1","1","1","0"
"817.5999999940395","f","31","2","1","83","54","86","46","0","2","1","0"
"894.5999999940395","k","30","2","0","84","47","46","14","0","2","1","0"
"1392.5999999940395","f","33","2","1","85","92","38","27","1","2","1","0"
"1677.1000000089407","k","30","2","0","86","79","48","43","1","2","1","0"
"null","null","-1","2","0","87","8","49","75","1","2","1","0"
"null","null","-1","2","0","88","18","35","90","1","2","0","0"
"1320.9000000059605","f","33","2","1","89","71","59","90","1","2","1","0"
"null","null","-1","2","0","90","10","17","81","1","2","1","0"
"1142.699999988079","k","0","2","0","91","52","51","33","0","2","0","0"
"904","k","0","2","0","92","33","61","83","0","2","0","0"
"1358.3999999910593","f","36","2","1","93","84","14","61","0","2","0","0"
"1080.5","f","35","2","1","94","28","63","72","0","2","1","0"
"1127","k","30","2","0","95","71","68","90","0","2","1","0"
"null","null","-1","2","1","96","71","67","78","0","2","0","0"
"893.9000000059605","f","37","2","1","97","24","41","96","1","2","1","0"
"null","null","-1","2","0","98","47","94","46","0","2","0","0"
"990.8999999910593","f","31","2","1","99","4","72","5","1","2","0","0"
"1837.7000000029802","k","0","2","0","100","40","89","76","1","2","0","0"
"1433.9000000059605","f","31","2","1","101","72","5","25","0","2","0","0"
"1654.5","f","34","2","1","102","55","98","22","1","2","0","0"
"null","null","-1","4","1","103","69","58","24","1","3","1","0"
"1716","k","0","4","0","104","91","69","37","0","3","0","0"
"null","null","-1","4","1","105","33","91","18","0","3","0","0"
"967.5999999940395","k","0","4","0","106","54","77","39","0","3","0","0"
"1255.5","f","29","4","1","107","60","90","15","1","3","1","0"
"935.3000000119209","k","0","4","0","108","72","58","65","1","3","0","0"
"1522.300000011921","f","31","4","1","109","30","4","92","0","3","1","0"
"1760.6000000089407","f","36","4","1","110","73","53","91","0","3","0","0"
"1086.2000000029802","k","0","4","0","111","16","31","36","1","3","0","0"
"984.9000000059605","f","30","4","1","112","49","5","47","0","3","1","0"
"870.5","f","38","4","1","113","72","13","63","1","3","1","0"
"822.7999999970198","k","0","4","0","114","18","22","62","1","3","0","0"
"1080.6000000089407","k","30","4","0","115","78","10","60","0","3","1","0"
"964.9000000059605","k","0","4","0","116","84","73","15","0","3","0","0"
"1134.7000000029802","f","28","4","1","117","32","91","2","1","3","1","0"
"909.8999999910593","k","0","4","0","118","4","23","59","0","3","0","0"
"1623.5999999940395","k","30","4","0","119","90","92","77","1","3","1","0"
"1711","f","37","4","1","120","25","88","92","0","3","1","0"
"null","null","-1","4","1","121","57","90","4","1","3","1","0"
"null","null","-1","4","0","122","29","65","81","1","3","0","0"
"null","null","-1","3","0","123","25","77","79","1","4","0","0"
"993.2999999970198","k","30","3","0","124","15","55","74","1","4","1","0"
"1334.9000000059605","f","35","3","1","125","94","32","68","0","4","0","0"
"960.2000000029802","k","0","3","0","126","85","57","36","0","4","0","0"
"1528.3999999910593","f","30","3","1","127","57","26","47","1","4","0","0"
"1450.0999999940395","f","28","3","1","128","32","85","11","1","4","1","0"
"979","f","28","3","1","129","70","90","62","0","4","1","0"
"1190.0999999940395","k","0","3","0","130","97","39","65","0","4","0","0"
"null","null","-1","3","0","131","8","47","60","1","4","1","0"
"943.5","k","30","3","0","132","53","55","17","1","4","1","0"
"1239.9000000059605","k","0","3","0","133","15","58","8","0","4","0","0"
"1408.9000000059605","f","28","3","1","134","99","68","58","0","4","1","0"
"1180.5999999940395","k","30","3","0","135","51","61","28","0","4","1","0"
"1047.4000000059605","k","0","3","0","136","3","37","55","1","4","0","0"
"1711.699999988079","f","30","3","1","137","6","20","9","0","4","1","0"
"1559.6000000089407","f","31","3","1","138","22","31","3","0","4","0","0"
"880.0999999940395","k","0","3","0","139","71","5","46","1","4","0","0"
"1880.7999999970198","f","38","3","1","140","66","9","77","1","4","0","0"
"908.5999999940395","f","29","3","1","141","66","81","97","0","4","1","0"
"886","f","28","3","1","142","11","47","15","1","4","1","0"
"770.7000000029802","k","30","0","0","143","69","12","3","0","5","1","0"
"901.2999999970198","k","0","0","0","144","32","45","21","1","5","0","0"
"872.1999999880791","k","30","0","0","145","86","80","61","1","5","1","0"
"1096.2999999970198","k","0","0","0","146","61","19","73","1","5","0","0"
"792.2999999970198","f","30","0","1","147","85","7","29","1","5","0","0"
"1087","k","30","0","0","148","98","49","5","0","5","1","0"
"1015.5999999940395","f","30","0","1","149","71","75","72","0","5","0","0"
"1040.2000000029802","k","30","0","0","150","30","15","98","0","5","1","0"
"864.1000000089407","f","28","0","1","151","39","55","11","1","5","1","0"
"702.3000000119209","k","0","0","0","152","30","34","21","0","5","0","0"
"1072","f","28","0","1","153","39","23","61","1","5","0","0"
"1079.300000011921","k","30","0","0","154","12","15","33","1","5","1","0"
"896","f","30","0","1","155","33","92","83","0","5","1","0"
"null","null","-1","0","1","156","60","24","4","1","5","0","0"
"1733.6000000089407","f","30","0","1","157","4","76","50","0","5","1","0"
"1054.5","f","32","0","1","158","40","29","67","1","5","1","0"
"null","null","-1","0","1","159","44","91","9","0","5","0","0"
"1126.9000000059605","f","27","0","1","160","42","68","0","0","5","0","0"
"null","null","-1","0","0","161","36","61","67","0","5","1","0"
"1254","k","0","0","0","162","65","48","42","1","5","0","0"
"914.4000000059605","k","0","1","0","163","38","41","90","0","6","0","0"
"1431","k","30","1","0","164","9","28","60","1","6","1","0"
"992.5","k","30","1","0","165","11","7","20","1","6","1","0"
"1176.2999999970198","k","0","1","0","166","84","73","8","1","6","0","0"
"1560.5","k","0","1","0","167","61","54","57","0","6","0","0"
"1439.300000011921","f","29","1","1","168","98","4","97","1","6","1","0"
"1016.3999999910593","f","30","1","1","169","12","42","61","0","6","1","0"
"1151","f","27","1","1","170","57","16","72","0","6","1","0"
"1020","f","33","1","1","171","80","32","5","1","6","1","0"
"927.9000000059605","k","30","1","0","172","16","98","84","1","6","1","0"
"1447.0999999940395","f","31","1","1","173","88","98","56","0","6","0","0"
"1213.5999999940395","f","32","1","1","174","10","57","66","1","6","0","0"
"null","null","-1","1","0","175","62","65","72","0","6","1","0"
"1348.2000000029802","k","0","1","0","176","44","94","3","1","6","0","0"
"1025","f","28","1","1","177","57","90","56","0","6","0","0"
"null","null","-1","1","1","178","26","96","68","0","6","1","0"
"755.2999999970198","f","31","1","1","179","25","98","55","1","6","0","0"
"1046.1000000089407","k","30","1","0","180","25","63","2","0","6","1","0"
"943.2999999970198","f","31","1","1","181","85","70","92","0","6","0","0"
"887.7000000029802","k","0","1","0","182","70","45","61","1","6","0","0"
"1082.4000000059605","k","0","2","0","183","20","0","96","0","7","0","0"
"925.7000000029802","f","36","2","1","184","5","64","56","1","7","1","0"
"1191.8999999910593","f","34","2","1","185","17","89","98","1","7","0","0"
"1595.2999999970198","k","0","2","0","186","35","31","3","0","7","0","0"
"1062.8999999910593","f","33","2","1","187","87","34","24","0","7","0","0"
"1199.7999999970198","f","34","2","1","188","97","89","53","0","7","0","0"
"983","k","0","2","0","189","70","74","65","1","7","0","0"
"965.5","k","30","2","0","190","66","35","67","0","7","1","0"
"1039.2999999970198","f","31","2","1","191","30","80","70","1","7","1","0"
"943.7000000029802","f","33","2","1","192","6","52","52","1","7","1","0"
"897.4000000059605","k","0","2","0","193","11","40","80","1","7","0","0"
"908.5","f","32","2","1","194","72","54","32","0","7","1","0"
"839.7000000029802","k","30","2","0","195","54","92","11","1","7","1","0"
"854","k","0","2","0","196","27","93","4","1","7","0","0"
"1552.7999999970198","k","0","2","0","197","97","42","45","0","7","0","0"
"1089.3999999910593","k","30","2","0","198","3","33","31","0","7","1","0"
"1039.5999999940395","f","36","2","1","199","75","82","36","0","7","1","0"
"972.9000000059605","k","30","2","0","200","63","16","91","0","7","1","0"
"883.8000000119209","f","31","2","1","201","88","71","8","1","7","0","0"
"975","f","32","2","1","202","81","27","84","1","7","1","0"
"1000.9000000059605","k","0","0","0","203","6","37","92","1","8","0","0"
"1086.2999999970198","f","32","0","1","204","47","32","18","0","8","0","0"
"903.2000000029802","k","30","0","0","205","80","90","81","1","8","1","0"
"834.8999999910593","k","30","0","0","206","99","67","50","1","8","1","0"
"1279.0999999940395","k","30","0","0","207","19","86","26","0","8","1","0"
"863.7999999970198","k","0","0","0","208","32","39","6","1","8","0","0"
"911.2000000029802","k","0","0","0","209","34","46","28","1","8","0","0"
"1166","f","28","0","1","210","10","60","69","0","8","1","0"
"1054.1000000089407","f","35","0","1","211","38","87","16","1","8","1","0"
"1062.9000000059605","f","29","0","1","212","85","56","25","0","8","0","0"
"974.9000000059605","f","26","0","1","213","27","71","60","0","8","0","0"
"885.5999999940395","k","30","0","0","214","64","54","2","1","8","1","0"
"935.1000000089407","f","33","0","1","215","35","19","91","0","8","0","0"
"1541.7000000029802","k","30","0","0","216","97","5","22","0","8","1","0"
"1023.7000000029802","f","27","0","1","217","62","30","72","1","8","0","0"
"957.0999999940395","k","0","0","0","218","15","30","9","0","8","0","0"
"943.2999999970198","f","28","0","1","219","26","73","15","0","8","1","0"
"789.3999999910593","k","0","0","0","220","74","0","24","0","8","0","0"
"774.7999999970198","f","31","0","1","221","15","49","89","1","8","1","0"
"1278.6000000089407","f","31","0","1","222","30","14","87","1","8","1","0"
"1289.7000000029802","k","0","4","0","223","74","3","78","0","9","0","0"
"871.2999999970198","k","30","4","0","224","33","39","52","1","9","1","0"
"958.9000000059605","f","39","4","1","225","81","87","42","0","9","0","0"
"918.2999999970198","f","33","4","1","226","22","20","67","1","9","0","0"
"950.7000000029802","f","36","4","1","227","69","29","23","1","9","1","0"
"781.5","f","31","4","1","228","28","8","48","1","9","1","0"
"1002.2000000029802","f","33","4","1","229","46","20","18","0","9","0","0"
"958.7999999970198","k","30","4","0","230","98","95","94","1","9","1","0"
"1478.6000000089407","k","0","4","0","231","43","57","45","1","9","0","0"
"422.40000000596046","k","0","4","0","232","16","3","93","0","9","0","0"
"null","null","-1","4","1","233","68","75","64","1","9","1","0"
"1165.300000011921","k","30","4","0","234","15","58","6","0","9","1","0"
"null","null","-1","4","1","235","34","29","64","0","9","0","0"
"1586.300000011921","k","30","4","0","236","53","24","89","0","9","1","0"
"1903.1000000089407","f","28","4","1","237","80","91","73","0","9","1","0"
"1103.699999988079","k","0","4","0","238","23","92","78","1","9","0","0"
"1326.5","k","30","4","0","239","1","12","91","1","9","1","0"
"775.9000000059605","k","0","4","0","240","17","63","95","1","9","0","0"
"1387.6000000089407","f","28","4","1","241","33","16","70","0","9","0","0"
"1501.7999999970198","f","29","4","1","242","78","27","31","0","9","1","0"
