"rt","key_press","reward","color_reward_index","type","trial_num","stim_1","stim_2","new_stim","change_index","block","changed","marble_set"
"2386.5","f","28","0","1","1","77","73","25","0","0","0","4"
"1085.5999999046326","f","28","0","1","2","66","38","68","0","0","0","4"
"1134.7000000476837","d","30","0","1","3","77","47","65","0","0","0","4"
"521.9000000953674","f","31","0","1","4","20","67","75","0","0","0","4"
"482.09999990463257","f","27","0","1","5","60","78","7","0","0","0","4"
"499.59999990463257","d","30","0","1","6","76","28","36","0","0","0","4"
"351.2999999523163","d","27","0","1","7","90","18","10","0","0","0","4"
"415.30000019073486","d","29","0","1","8","33","94","88","0","0","0","4"
"761.1999998092651","f","32","0","1","9","40","29","34","0","0","0","4"
"570.2999999523163","f","28","0","1","10","16","38","33","0","0","0","4"
"417.2999999523163","d","33","0","1","11","1","69","4","0","0","0","4"
"539.7000000476837","d","25","0","1","12","11","74","37","0","0","0","4"
"278.7000000476837","d","32","0","1","13","13","87","3","0","0","0","4"
"344.39999985694885","f","30","0","1","14","27","77","38","0","0","0","4"
"408.7000000476837","d","35","0","1","15","9","20","7","0","0","0","4"
"554.2999999523163","d","28","0","1","16","46","47","76","0","0","0","4"
"429.60000014305115","f","31","0","1","17","72","79","70","0","0","0","4"
"260.40000009536743","f","31","0","1","18","11","67","70","0","0","0","4"
"236.5","d","29","0","1","19","33","81","23","0","0","0","4"
"397.7999999523163","f","27","0","1","20","90","68","41","0","0","0","4"
"2018.4000000953674","j","30","0","0","21","6","51","3","0","0","0","4"
"1105.6000001430511","k","30","0","0","22","49","68","33","0","0","1","4"
"1825.5999999046326","j","0","0","0","23","55","67","45","0","0","1","4"
"977.7000000476837","j","30","0","0","24","84","32","44","0","0","0","4"
"942.8999998569489","k","0","0","0","25","10","27","19","0","0","0","4"
"1251.2999999523163","k","30","0","0","26","86","58","63","1","0","1","4"
"1182.7000000476837","j","30","0","0","27","7","61","17","0","0","0","4"
"1082.2999999523163","k","30","0","0","28","65","6","62","0","0","1","4"
"1230.2999999523163","k","30","0","0","29","39","89","24","0","0","1","4"
"1155","k","30","0","0","30","17","68","89","1","0","1","4"
"1198.9000000953674","k","0","0","0","31","21","48","74","1","0","0","4"
"1150.4000000953674","k","30","0","0","32","62","74","43","1","0","1","4"
"1109.4000000953674","j","30","0","0","33","14","28","19","1","0","0","4"
"1202.4000000953674","j","30","0","0","34","23","0","73","1","0","0","4"
"1381.2999999523163","j","30","0","0","35","43","20","41","1","0","0","4"
"1070.7999999523163","k","30","0","0","36","7","4","98","1","0","1","4"
"921.2000000476837","k","30","0","0","37","76","77","19","0","0","1","4"
"899.9000000953674","k","30","0","0","38","72","52","87","1","0","1","4"
"1016.4000000953674","k","30","0","0","39","59","37","18","0","0","1","4"
"1281.8999998569489","j","30","0","0","40","36","23","91","0","0","0","4"
"21986.10000014305","","","","","","","","","","","",""
"3830.7000000476837","","","","","","","","","","","",""
"6602.699999809265","","","","","","","","","","","",""
"3507.800000190735","","","","","","","","","","","",""
"null","null","-1","4","1","45","15","73","37","0","0","0","4"
"null","null","-1","4","0","46","52","86","61","1","0","1","4"
"914.1000001430511","f","30","4","1","47","55","69","18","1","0","0","4"
"1148.7999999523163","f","33","4","1","48","54","70","97","1","0","1","4"
"1530.7000000476837","j","0","4","0","49","82","84","60","0","0","1","4"
"1602.7000000476837","j","0","4","0","50","39","23","45","1","0","1","4"
"1176.1999998092651","j","30","4","0","51","53","81","73","0","0","0","4"
"1467.2999999523163","j","0","4","0","52","88","67","55","1","0","1","4"
"1054.7000000476837","d","34","4","1","53","89","40","63","0","0","0","4"
"1338.2000000476837","f","31","4","1","54","31","73","40","1","0","1","4"
"1309","j","30","4","0","55","35","57","88","0","0","0","4"
"1297.4000000953674","d","32","4","1","56","92","93","16","0","0","1","4"
"1382.2999999523163","k","30","4","0","57","1","94","91","0","0","1","4"
"1210.6000001430511","d","32","4","1","58","42","58","81","1","0","1","4"
"1037.2999999523163","f","37","4","1","59","2","82","8","0","0","0","4"
"1038.3999998569489","f","31","4","1","60","47","59","81","0","0","0","4"
"1415.7000000476837","j","30","4","0","61","74","3","16","0","0","0","4"
"1383.3999998569489","k","30","4","0","62","99","26","67","1","0","1","4"
"1190.8999998569489","j","30","4","0","63","91","83","84","1","0","0","4"
"1054.2999999523163","d","29","4","1","64","30","71","78","1","0","0","4"
"1076.4000000953674","d","33","4","1","65","15","84","28","0","1","1","4"
"1335.2999999523163","j","30","4","0","66","4","96","37","0","1","0","4"
"997.7000000476837","f","33","4","1","67","87","6","57","1","1","0","4"
"1239","k","30","4","0","68","93","29","75","1","1","1","4"
"894.5","d","32","4","1","69","46","85","45","1","1","0","4"
"970.8999998569489","d","33","4","1","70","3","94","7","1","1","0","4"
"1414.7000000476837","f","27","4","1","71","80","37","67","1","1","1","4"
"1519","j","30","4","0","72","85","20","86","0","1","0","4"
"1230.5999999046326","d","31","4","1","73","8","47","13","0","1","0","4"
"1003.0999999046326","f","31","4","1","74","85","54","17","0","1","1","4"
"1304","k","30","4","0","75","55","69","12","0","1","1","4"
"1263.9000000953674","f","34","4","1","76","50","33","91","0","1","0","4"
"1127.1999998092651","k","30","4","0","77","1","98","95","1","1","1","4"
"1093","k","30","4","0","78","2","46","49","0","1","1","4"
"1166.1999998092651","d","36","4","1","79","43","39","34","1","1","0","4"
"1191.8000001907349","k","30","4","0","80","52","50","58","0","1","1","4"
"1005.4000000953674","k","30","4","0","81","13","96","17","1","1","1","4"
"853.7999999523163","d","31","4","1","82","44","1","50","1","1","0","4"
"1374.5","k","30","4","0","83","88","71","86","1","1","1","4"
"1426.0999999046326","j","30","4","0","84","24","63","48","0","1","0","4"
"1614.2999999523163","k","30","2","0","85","95","17","67","0","2","1","4"
"1069.9000000953674","d","37","2","1","86","41","96","74","0","2","1","4"
"1204.3000001907349","j","30","2","0","87","7","17","16","1","2","0","4"
"1614.3999998569489","k","30","2","0","88","13","49","75","1","2","1","4"
"1222.8999998569489","f","40","2","1","89","30","87","18","0","2","0","4"
"1093","k","30","2","0","90","3","84","92","1","2","1","4"
"1282.3999998569489","f","31","2","1","91","18","69","25","0","2","1","4"
"1353.7999999523163","j","30","2","0","92","84","6","70","0","2","0","4"
"1656","d","35","2","1","93","63","60","58","0","2","0","4"
"1432.7999999523163","j","30","2","0","94","45","85","28","1","2","0","4"
"1282.7000000476837","k","30","2","0","95","39","61","49","0","2","1","4"
"1179.5999999046326","d","31","2","1","96","5","7","45","1","2","0","4"
"1949.8999998569489","d","32","2","1","97","81","91","52","0","2","1","4"
"1457.7000000476837","j","30","2","0","98","99","32","71","1","2","0","4"
"null","null","-1","2","1","99","5","37","28","1","2","0","4"
"1382.9000000953674","d","32","2","1","100","18","11","52","1","2","0","4"
"1481.9000000953674","f","35","2","1","101","16","76","86","1","2","1","4"
"1214.3000001907349","f","36","2","1","102","30","82","94","0","2","1","4"
"1338.6000001430511","k","30","2","0","103","93","90","72","1","2","1","4"
"1159.7000000476837","j","30","2","0","104","1","94","12","0","2","0","4"
"1299.5","j","30","2","0","105","86","34","5","0","3","0","4"
"1348.6999998092651","k","30","2","0","106","57","67","29","1","3","1","4"
"1298.2999999523163","d","36","2","1","107","82","10","37","1","3","1","4"
"968.8999998569489","f","37","2","1","108","42","96","3","0","3","0","4"
"1090.2000000476837","d","35","2","1","109","75","69","45","1","3","1","4"
"850.5","f","32","2","1","110","15","62","60","0","3","1","4"
"1091.4000000953674","d","35","2","1","111","76","47","4","0","3","0","4"
"1046.2000000476837","k","30","2","0","112","92","98","74","1","3","1","4"
"1551.5","j","30","2","0","113","51","86","86","1","3","0","4"
"1061.9000000953674","j","30","2","0","114","5","35","59","1","3","0","4"
"1087.9000000953674","d","35","2","1","115","58","25","51","0","3","1","4"
"1015.2999999523163","d","33","2","1","116","46","68","55","1","3","0","4"
"1542.7999999523163","k","30","2","0","117","92","12","79","0","3","1","4"
"1889.4000000953674","k","30","2","0","118","76","45","7","0","3","1","4"
"1110.7000000476837","d","36","2","1","119","14","21","31","0","3","0","4"
"1382.7000000476837","f","32","2","1","120","49","62","57","1","3","1","4"
"1214.6999998092651","j","30","2","0","121","35","25","57","0","3","0","4"
"1192","f","36","2","1","122","16","14","36","1","3","1","4"
"1049.7000000476837","j","30","2","0","123","11","35","87","1","3","0","4"
"1031.2000000476837","j","30","2","0","124","53","66","19","0","3","0","4"
"1565.3999998569489","j","30","1","0","125","28","55","79","1","4","0","4"
"1013.7000000476837","j","30","1","0","126","36","25","58","1","4","0","4"
"904.9000000953674","d","36","1","1","127","19","68","21","1","4","0","4"
"1135.7999999523163","j","30","1","0","128","13","2","80","1","4","0","4"
"1025.7999999523163","d","30","1","1","129","77","35","41","0","4","0","4"
"1426.5","k","30","1","0","130","99","71","8","1","4","1","4"
"1419.8999998569489","k","30","1","0","131","99","50","89","0","4","1","4"
"1304","f","27","1","1","132","3","16","4","1","4","1","4"
"991.5999999046326","d","31","1","1","133","75","3","70","1","4","1","4"
"1274.9000000953674","j","30","1","0","134","22","30","13","0","4","0","4"
"1539.5","f","33","1","1","135","35","39","55","0","4","1","4"
"1176","d","30","1","1","136","76","77","3","1","4","1","4"
"1197.5","j","30","1","0","137","18","35","32","0","4","0","4"
"871.7999999523163","f","36","1","1","138","97","87","63","0","4","0","4"
"1110","k","30","1","0","139","32","75","27","0","4","1","4"
"1144.7000000476837","f","30","1","1","140","22","34","14","0","4","1","4"
"1314.7000000476837","k","0","1","0","141","98","41","16","1","4","0","4"
"1195.4000000953674","d","33","1","1","142","17","94","14","1","4","1","4"
"1245.7000000476837","k","30","1","0","143","90","47","74","0","4","1","4"
"1256.4000000953674","d","29","1","1","144","54","17","6","0","4","0","4"
"1499.5","j","30","0","0","145","5","14","49","1","5","0","4"
"1030.7000000476837","j","30","0","0","146","77","41","92","1","5","0","4"
"1173.3999998569489","k","30","0","0","147","94","56","84","1","5","1","4"
"1353.8000001907349","f","26","0","1","148","18","72","57","0","5","0","4"
"1112","k","30","0","0","149","3","49","90","1","5","1","4"
"1702","j","30","0","0","150","29","2","63","0","5","0","4"
"1374","f","30","0","1","151","64","63","24","1","5","1","4"
"1087.7000000476837","j","30","0","0","152","76","68","4","1","5","0","4"
"1278.7999999523163","d","28","0","1","153","26","37","72","0","5","0","4"
"1131.7999999523163","f","28","0","1","154","17","60","68","1","5","0","4"
"1205.6999998092651","j","30","0","0","155","93","66","27","1","5","0","4"
"1166.0999999046326","d","27","0","1","156","20","60","45","0","5","1","4"
"1159.5","f","28","0","1","157","39","4","60","0","5","1","4"
"1200.7000000476837","d","26","0","1","158","47","45","1","0","5","1","4"
"1196.5","k","30","0","0","159","67","76","66","1","5","1","4"
"1152.0999999046326","d","31","0","1","160","79","83","20","0","5","0","4"
"1120.1999998092651","k","30","0","0","161","82","41","68","0","5","1","4"
"1371.4000000953674","f","30","0","1","162","62","95","55","0","5","1","4"
"1312","j","30","0","0","163","48","61","52","1","5","0","4"
"1184.3000001907349","d","30","0","1","164","77","69","45","0","5","1","4"
"1140.7000000476837","j","30","3","0","165","26","8","14","1","6","0","4"
"950.3999998569489","d","35","3","1","166","39","74","63","0","6","1","4"
"1014.2000000476837","f","38","3","1","167","70","87","19","0","6","1","4"
"1140.2999999523163","j","30","3","0","168","8","19","25","0","6","0","4"
"1303.6999998092651","k","30","3","0","169","37","4","0","0","6","1","4"
"1246.6000001430511","j","30","3","0","170","7","92","78","1","6","0","4"
"1037.1999998092651","j","30","3","0","171","91","73","93","1","6","0","4"
"1437.2000000476837","d","36","3","1","172","13","76","87","0","6","1","4"
"968.5","f","29","3","1","173","54","81","26","1","6","0","4"
"1166.7000000476837","d","35","3","1","174","88","50","60","1","6","1","4"
"1227.4000000953674","d","34","3","1","175","40","37","12","1","6","0","4"
"1292.2000000476837","f","34","3","1","176","79","58","49","0","6","1","4"
"1317.4000000953674","k","30","3","0","177","52","43","97","1","6","1","4"
"1155.5","k","30","3","0","178","80","45","86","0","6","1","4"
"1019.1000001430511","f","35","3","1","179","95","43","91","1","6","0","4"
"1083.2000000476837","j","30","3","0","180","25","6","15","1","6","0","4"
"1683.5","k","30","3","0","181","91","94","36","0","6","1","4"
"1285.7000000476837","f","28","3","1","182","48","27","12","0","6","0","4"
"1415.2000000476837","j","30","3","0","183","41","38","2","0","6","0","4"
"1168","d","32","3","1","184","94","12","81","1","6","1","4"
"1589","k","30","0","0","185","76","26","27","1","7","1","4"
"1245.6000001430511","f","26","0","1","186","4","71","56","1","7","0","4"
"1097.7000000476837","k","30","0","0","187","67","8","89","0","7","1","4"
"1385.7000000476837","f","31","0","1","188","37","74","88","0","7","0","4"
"952.6000001430511","d","28","0","1","189","65","25","70","1","7","1","4"
"1040.7999999523163","f","27","0","1","190","37","78","9","0","7","1","4"
"1079.5","j","30","0","0","191","76","2","93","1","7","0","4"
"1112.0999999046326","k","30","0","0","192","85","47","80","0","7","1","4"
"1146.5999999046326","d","30","0","1","193","7","45","71","1","7","1","4"
"1434.5999999046326","j","30","0","0","194","9","11","4","1","7","0","4"
"1201","f","27","0","1","195","85","54","61","0","7","0","4"
"1141.7000000476837","j","30","0","0","196","60","6","73","0","7","0","4"
"1074.2999999523163","f","27","0","1","197","23","36","31","1","7","1","4"
"918.6000001430511","d","31","0","1","198","14","88","51","1","7","0","4"
"1416.0999999046326","j","30","0","0","199","25","29","67","0","7","0","4"
"1121.9000000953674","j","30","0","0","200","80","14","78","1","7","0","4"
"1502.7000000476837","k","30","0","0","201","23","17","52","0","7","1","4"
"1320","f","26","0","1","202","84","47","36","0","7","0","4"
"1082.8000001907349","d","32","0","1","203","10","35","60","0","7","1","4"
"1450.0999999046326","k","30","0","0","204","89","16","91","1","7","1","4"
"1148","d","31","1","1","205","75","74","38","1","8","0","4"
"1062.5","k","30","1","0","206","48","46","63","1","8","1","4"
"1104.7000000476837","k","30","1","0","207","57","25","54","1","8","1","4"
"1011.7000000476837","k","30","1","0","208","28","69","22","0","8","1","4"
"1109.8999998569489","k","30","1","0","209","32","70","17","1","8","1","4"
"1019.4000000953674","d","33","1","1","210","29","77","25","1","8","0","4"
"1126.7999999523163","f","36","1","1","211","66","9","40","0","8","1","4"
"978.2000000476837","d","33","1","1","212","53","12","36","1","8","1","4"
"959.2999999523163","k","30","1","0","213","95","33","11","1","8","1","4"
"932.7999999523163","k","30","1","0","214","92","91","71","0","8","1","4"
"1130.7000000476837","k","30","1","0","215","89","23","46","1","8","1","4"
"1310.5999999046326","f","31","1","1","216","96","6","30","0","8","1","4"
"1211.2000000476837","j","30","1","0","217","72","12","11","0","8","0","4"
"1020.2000000476837","d","33","1","1","218","41","91","11","0","8","0","4"
"1073.8999998569489","d","36","1","1","219","9","95","89","1","8","0","4"
"1042.7999999523163","d","30","1","1","220","84","21","12","0","8","0","4"
"1497.7999999523163","j","30","1","0","221","13","62","79","0","8","0","4"
"1030.2000000476837","j","30","1","0","222","16","68","19","0","8","0","4"
"1360.3999998569489","f","33","1","1","223","42","17","10","1","8","0","4"
"1262.4000000953674","f","31","1","1","224","34","3","8","0","8","0","4"
"929.5","d","31","3","1","225","46","59","81","1","9","0","4"
"1019.5999999046326","f","30","3","1","226","24","12","75","1","9","1","4"
"968.2999999523163","j","30","3","0","227","27","40","24","0","9","0","4"
"978.2000000476837","f","35","3","1","228","12","29","73","1","9","1","4"
"992.8999998569489","k","30","3","0","229","54","46","36","0","9","1","4"
"1308.3999998569489","j","30","3","0","230","88","47","0","1","9","0","4"
"1153.6000001430511","f","34","3","1","231","21","50","46","0","9","1","4"
"1053.5999999046326","f","33","3","1","232","4","49","13","0","9","0","4"
"1067.2000000476837","k","30","3","0","233","15","47","83","0","9","1","4"
"1104.6000001430511","f","28","3","1","234","71","5","25","1","9","1","4"
"1290.2999999523163","k","0","3","0","235","75","59","23","1","9","0","4"
"1125.6999998092651","f","31","3","1","236","86","84","36","1","9","0","4"
"1041.7999999523163","k","30","3","0","237","8","77","96","1","9","1","4"
"1040.5999999046326","d","36","3","1","238","13","29","12","1","9","1","4"
"935.3999998569489","k","30","3","0","239","82","30","85","0","9","1","4"
"823.5","d","31","3","1","240","77","90","85","1","9","0","4"
"1078.2000000476837","k","30","3","0","241","46","58","55","0","9","1","4"
"1314.1999998092651","f","35","3","1","242","78","41","26","0","9","0","4"
"1087.0999999046326","j","30","3","0","243","48","75","54","0","9","0","4"
"1066","j","30","3","0","244","11","31","76","0","9","0","4"
