"rt","key_press","reward","color_reward_index","type","trial_num","stim_1","stim_2","new_stim","change_index","block","changed","marble_set"
"64305","d","32","0","1","1","29","9","11","0","0","0","0"
"2610","d","25","0","1","2","11","60","38","0","0","0","0"
"12011","f","32","0","1","3","56","40","22","0","0","0","0"
"2996","f","28","0","1","4","61","4","1","0","0","0","0"
"1714","d","27","0","1","5","90","14","16","0","0","0","0"
"1818","d","26","0","1","6","51","57","35","0","0","0","0"
"4060","d","28","0","1","7","38","63","43","0","0","0","0"
"2380","f","31","0","1","8","70","14","18","0","0","0","0"
"1918","f","30","0","1","9","14","6","3","0","0","0","0"
"2109","f","32","0","1","10","15","53","76","0","0","0","0"
"1639","d","35","0","1","11","99","95","87","0","0","0","0"
"1791","d","32","0","1","12","17","21","53","0","0","0","0"
"1529","f","30","0","1","13","99","7","31","0","0","0","0"
"2167","d","30","0","1","14","92","40","31","0","0","0","0"
"2154","d","26","0","1","15","51","79","65","0","0","0","0"
"1528","d","26","0","1","16","24","65","94","0","0","0","0"
"2451","d","32","0","1","17","41","52","39","0","0","0","0"
"1482","d","29","0","1","18","33","57","85","0","0","0","0"
"3747","d","30","0","1","19","75","52","18","0","0","0","0"
"1059","d","28","0","1","20","8","69","42","0","0","0","0"
"19150","j","30","0","0","21","24","20","91","1","0","0","0"
"2544","k","30","0","0","22","39","71","21","0","0","1","0"
"1731","k","0","0","0","23","78","7","98","1","0","0","0"
"4836","k","30","0","0","24","5","91","59","0","0","1","0"
"3747","k","30","0","0","25","84","13","57","0","0","1","0"
"3068","k","0","0","0","26","65","5","10","1","0","0","0"
"4716","j","0","0","0","27","53","15","54","1","0","1","0"
"3573","k","0","0","0","28","63","10","72","0","0","0","0"
"1749","j","30","0","0","29","62","61","73","0","0","0","0"
"2121","k","30","0","0","30","37","30","7","1","0","1","0"
"2069","k","30","0","0","31","77","30","24","0","0","1","0"
"2184","j","30","0","0","32","30","46","0","0","0","0","0"
"3483","j","0","0","0","33","15","50","39","0","0","1","0"
"2448","j","30","0","0","34","61","27","56","0","0","0","0"
"4103","k","30","0","0","35","21","22","19","1","0","1","0"
"2618","j","30","0","0","36","71","87","19","1","0","0","0"
"2323","k","30","0","0","37","41","52","71","0","0","1","0"
"2142","j","30","0","0","38","77","92","19","1","0","0","0"
"3121","k","30","0","0","39","79","71","78","1","0","1","0"
"3593","k","30","0","0","40","14","54","32","1","0","1","0"
"28300","","","","","","","","","","","",""
"14941","","","","","","","","","","","",""
"15486","","","","","","","","","","","",""
"7311","","","","","","","","","","","",""
"9683","","","","","","","","","","","",""
"4444","","","","","","","","","","","",""
"null","null","-1","0","1","47","10","58","63","0","0","1","0"
"null","null","-1","0","0","48","65","5","12","0","0","1","0"
"null","null","-1","0","1","49","23","88","57","1","0","1","0"
"null","null","-1","0","0","50","37","24","9","0","0","1","0"
"null","null","-1","0","1","51","92","32","38","1","0","0","0"
"null","null","-1","0","1","52","32","29","64","0","0","1","0"
"null","null","-1","0","1","53","64","95","37","1","0","1","0"
"null","null","-1","0","0","54","59","14","66","1","0","0","0"
"null","null","-1","0","0","55","81","71","9","0","0","0","0"
"null","null","-1","0","0","56","68","60","79","0","0","1","0"
"1123","k","0","0","0","57","41","60","52","0","0","0","0"
"1448","j","0","0","0","58","86","94","88","0","0","1","0"
"null","null","-1","0","1","59","25","96","72","1","0","0","0"
"1576","f","29","0","1","60","55","89","62","0","0","1","0"
"1933","k","0","0","0","61","16","97","78","1","0","0","0"
"null","null","-1","0","1","62","18","15","38","1","0","0","0"
"1809","k","30","0","0","63","57","16","66","1","0","1","0"
"1917","d","32","0","1","64","39","23","53","0","0","0","0"
"1458","d","28","0","1","65","42","85","52","1","0","0","0"
"null","null","-1","0","0","66","27","75","58","1","0","0","0"
"null","null","-1","1","1","67","23","47","16","0","1","1","0"
"1480","j","30","1","0","68","70","83","9","1","1","0","0"
"1637","j","30","1","0","69","80","7","63","1","1","0","0"
"968","k","30","1","0","70","5","68","87","0","1","1","0"
"1560","j","0","1","0","71","92","11","85","1","1","1","0"
"1965","k","30","1","0","72","21","48","2","1","1","1","0"
"null","null","-1","1","1","73","83","91","74","0","1","1","0"
"1418","d","29","1","1","74","8","35","84","0","1","1","0"
"1142","d","31","1","1","75","56","40","16","0","1","1","0"
"null","null","-1","1","0","76","74","97","15","0","1","0","0"
"1473","j","30","1","0","77","80","55","19","1","1","0","0"
"1172","d","28","1","1","78","47","87","20","0","1","0","0"
"1412","j","30","1","0","79","12","42","97","1","1","0","0"
"1625","j","30","1","0","80","30","54","33","1","1","0","0"
"1802","d","29","1","1","81","52","79","60","0","1","0","0"
"1511","d","28","1","1","82","85","48","46","1","1","1","0"
"null","null","-1","1","1","83","15","56","30","1","1","1","0"
"null","null","-1","1","0","84","79","1","57","0","1","1","0"
"1845","d","30","1","1","85","76","79","24","1","1","0","0"
"1270","d","30","1","1","86","42","51","45","0","1","0","0"
"1658","d","29","1","1","87","73","1","5","1","2","0","0"
"null","null","-1","1","0","88","68","54","97","0","2","0","0"
"null","null","-1","1","1","89","91","49","24","0","2","0","0"
"1713","k","0","1","0","90","89","31","87","1","2","0","0"
"1539","k","30","1","0","91","64","91","11","1","2","1","0"
"1321","j","30","1","0","92","41","67","58","0","2","0","0"
"1357","k","30","1","0","93","97","60","83","0","2","1","0"
"1759","j","0","1","0","94","82","55","59","0","2","1","0"
"1753","f","29","1","1","95","33","28","29","0","2","1","0"
"1647","f","33","1","1","96","53","14","63","1","2","0","0"
"null","null","-1","1","1","97","94","76","4","0","2","1","0"
"1560","f","33","1","1","98","39","41","66","1","2","1","0"
"null","null","-1","1","0","99","88","55","14","0","2","1","0"
"null","null","-1","1","1","100","93","70","73","1","2","0","0"
"369","f","29","1","1","101","57","26","32","0","2","0","0"
"1219","f","25","1","1","102","37","0","1","1","2","0","0"
"1104","f","29","1","1","103","54","59","50","1","2","1","0"
"1857","k","30","1","0","104","26","98","32","1","2","1","0"
"1400","j","30","1","0","105","37","68","16","0","2","0","0"
"1326","k","30","1","0","106","23","47","4","1","2","1","0"
"null","null","-1","4","0","107","23","82","15","0","3","1","0"
"1294","k","0","4","0","108","79","31","35","1","3","0","0"
"935","j","30","4","0","109","96","1","0","0","3","0","0"
"1160","d","33","4","1","110","3","71","2","0","3","0","0"
"1684","k","30","4","0","111","21","13","57","1","3","1","0"
"null","null","-1","4","0","112","29","66","51","0","3","0","0"
"1344","f","31","4","1","113","25","55","61","1","3","1","0"
"1459","f","34","4","1","114","2","33","46","1","3","0","0"
"1482","k","0","4","0","115","74","31","6","0","3","0","0"
"1558","f","37","4","1","116","79","88","92","1","3","0","0"
"1239","f","29","4","1","117","10","30","78","0","3","0","0"
"1362","d","32","4","1","118","42","63","49","0","3","1","0"
"null","null","-1","4","0","119","96","5","52","1","3","0","0"
"1132","f","37","4","1","120","17","14","57","0","3","1","0"
"1453","k","30","4","0","121","89","56","7","1","3","1","0"
"1171","f","31","4","1","122","42","52","15","1","3","0","0"
"1275","k","30","4","0","123","14","46","25","1","3","1","0"
"null","null","-1","4","1","124","43","76","21","0","3","1","0"
"1356","d","30","4","1","125","72","35","1","1","3","1","0"
"1831","j","0","4","0","126","19","71","79","0","3","1","0"
"1231","f","34","4","1","127","2","94","86","1","4","1","0"
"1103","f","32","4","1","128","4","92","94","0","4","0","0"
"1687","k","30","4","0","129","10","94","12","0","4","1","0"
"1231","k","30","4","0","130","3","83","58","1","4","1","0"
"1198","k","0","4","0","131","66","27","75","0","4","0","0"
"1186","f","29","4","1","132","41","30","79","0","4","1","0"
"1083","f","29","4","1","133","70","18","1","1","4","1","0"
"1223","k","30","4","0","134","96","38","21","0","4","1","0"
"1436","k","0","4","0","135","66","68","86","1","4","0","0"
"1246","f","30","4","1","136","55","47","19","1","4","1","0"
"1416","j","30","4","0","137","65","5","11","1","4","0","0"
"1345","f","36","4","1","138","93","17","84","0","4","1","0"
"1307","j","30","4","0","139","96","5","44","1","4","0","0"
"1510","j","30","4","0","140","71","87","70","1","4","0","0"
"1085","f","33","4","1","141","19","75","71","0","4","1","0"
"null","null","-1","4","1","142","25","88","86","1","4","1","0"
"1118","f","31","4","1","143","9","12","8","0","4","0","0"
"1199","k","0","4","0","144","24","43","98","1","4","0","0"
"1500","j","30","4","0","145","53","19","74","0","4","0","0"
"1024","f","36","4","1","146","93","29","72","0","4","0","0"
"1205","k","0","3","0","147","24","8","69","0","5","0","0"
"null","null","-1","3","1","148","61","76","5","0","5","0","0"
"1226","k","30","3","0","149","12","93","78","1","5","1","0"
"1076","d","28","3","1","150","72","4","62","1","5","1","0"
"1119","d","32","3","1","151","15","38","89","0","5","1","0"
"1014","d","30","3","1","152","20","24","78","0","5","0","0"
"1529","k","30","3","0","153","52","32","85","0","5","1","0"
"1170","d","29","3","1","154","28","6","77","0","5","1","0"
"1069","k","0","3","0","155","91","56","46","1","5","0","0"
"1060","d","28","3","1","156","27","84","59","1","5","0","0"
"1797","d","33","3","1","157","57","41","17","1","5","1","0"
"1201","f","35","3","1","158","34","29","17","0","5","0","0"
"853","k","0","3","0","159","81","80","4","1","5","0","0"
"1501","k","30","3","0","160","72","1","87","1","5","1","0"
"1047","k","0","3","0","161","51","83","76","0","5","0","0"
"1057","j","0","3","0","162","36","33","21","1","5","1","0"
"862","k","0","3","0","163","27","15","38","1","5","0","0"
"1116","d","28","3","1","164","24","68","44","0","5","1","0"
"1119","j","30","3","0","165","34","49","93","1","5","0","0"
"null","null","-1","3","1","166","19","41","3","0","5","1","0"
"null","null","-1","0","1","167","21","32","70","1","6","0","0"
"1214","j","0","0","0","168","44","51","97","1","6","1","0"
"1328","j","0","0","0","169","4","90","74","0","6","1","0"
"1075","d","27","0","1","170","36","84","88","0","6","0","0"
"1542","j","0","0","0","171","27","72","3","0","6","1","0"
"1357","d","26","0","1","172","91","35","60","1","6","0","0"
"1124","f","26","0","1","173","73","24","15","1","6","0","0"
"1169","d","32","0","1","174","13","71","46","0","6","0","0"
"1093","d","26","0","1","175","16","85","24","1","6","1","0"
"1370","j","30","0","0","176","8","16","82","1","6","0","0"
"966","d","31","0","1","177","74","85","50","1","6","1","0"
"1203","d","31","0","1","178","57","66","97","1","6","0","0"
"1418","k","0","0","0","179","78","14","59","1","6","0","0"
"1275","j","0","0","0","180","92","54","15","0","6","1","0"
"759","k","0","0","0","181","33","8","32","0","6","0","0"
"1190","k","30","0","0","182","33","30","59","1","6","1","0"
"1279","j","0","0","0","183","96","91","97","0","6","1","0"
"1044","d","27","0","1","184","68","32","86","0","6","1","0"
"null","null","-1","0","1","185","39","25","65","0","6","0","0"
"1572","k","30","0","0","186","78","81","0","0","6","1","0"
"1400","k","30","2","0","187","42","28","61","0","7","1","0"
"996","d","31","2","1","188","51","68","88","1","7","0","0"
"938","d","38","2","1","189","1","36","4","0","7","0","0"
"1540","d","32","2","1","190","45","48","15","1","7","1","0"
"null","null","-1","2","0","191","87","15","61","0","7","0","0"
"1155","d","31","2","1","192","47","93","85","0","7","1","0"
"842","d","31","2","1","193","97","46","45","0","7","0","0"
"1400","k","30","2","0","194","38","68","31","1","7","1","0"
"1155","k","0","2","0","195","93","17","84","1","7","0","0"
"1282","f","32","2","1","196","63","18","24","0","7","1","0"
"1307","k","30","2","0","197","10","79","50","1","7","1","0"
"1208","d","35","2","1","198","3","7","63","0","7","1","0"
"1194","d","36","2","1","199","64","19","89","1","7","0","0"
"1069","d","31","2","1","200","47","84","43","0","7","1","0"
"980","d","34","2","1","201","33","57","21","1","7","1","0"
"1668","k","0","2","0","202","11","96","94","0","7","0","0"
"1515","j","30","2","0","203","7","45","47","1","7","0","0"
"1577","j","0","2","0","204","88","72","46","1","7","1","0"
"1509","j","30","2","0","205","75","10","80","1","7","0","0"
"1292","j","30","2","0","206","72","58","86","0","7","0","0"
"1824","f","35","2","1","207","50","61","35","1","8","1","0"
"1357","k","30","2","0","208","66","98","76","0","8","1","0"
"1323","j","30","2","0","209","23","28","57","1","8","0","0"
"901","d","37","2","1","210","39","71","38","0","8","0","0"
"1147","f","33","2","1","211","11","38","18","1","8","0","0"
"1072","f","34","2","1","212","8","33","77","0","8","1","0"
"1046","d","32","2","1","213","20","12","71","0","8","1","0"
"1122","d","33","2","1","214","26","83","64","0","8","0","0"
"1394","j","30","2","0","215","10","52","31","0","8","0","0"
"1108","j","0","2","0","216","14","36","38","1","8","1","0"
"1510","d","35","2","1","217","6","0","76","0","8","1","0"
"1325","j","30","2","0","218","43","38","40","0","8","0","0"
"1231","d","30","2","1","219","11","6","86","1","8","1","0"
"1258","k","30","2","0","220","68","90","64","1","8","1","0"
"959","f","33","2","1","221","19","84","61","1","8","0","0"
"1154","j","30","2","0","222","59","39","80","1","8","0","0"
"1303","j","30","2","0","223","30","37","72","0","8","0","0"
"876","j","30","2","0","224","33","28","56","1","8","0","0"
"1077","j","0","2","0","225","87","79","92","1","8","1","0"
"1037","d","37","2","1","226","17","29","5","0","8","1","0"
"923","f","34","3","1","227","70","50","18","1","9","0","0"
"1056","f","35","3","1","228","1","41","12","1","9","1","0"
"1107","j","0","3","0","229","16","25","78","0","9","1","0"
"1016","j","0","3","0","230","10","49","46","1","9","1","0"
"1182","k","0","3","0","231","30","1","27","0","9","0","0"
"1169","f","30","3","1","232","60","20","2","0","9","0","0"
"1117","d","33","3","1","233","64","5","35","0","9","1","0"
"1061","d","31","3","1","234","65","73","16","1","9","0","0"
"1372","k","0","3","0","235","82","52","70","0","9","0","0"
"998","d","33","3","1","236","64","89","93","0","9","0","0"
"1091","d","33","3","1","237","64","13","19","1","9","1","0"
"1261","k","30","3","0","238","26","37","65","0","9","1","0"
"927","d","32","3","1","239","70","46","60","0","9","0","0"
"1254","f","35","3","1","240","32","41","47","0","9","1","0"
"1411","j","30","3","0","241","94","83","92","1","9","0","0"
"1988","k","30","3","0","242","30","98","17","1","9","1","0"
"1611","j","0","3","0","243","11","73","61","1","9","1","0"
"1192","f","27","3","1","244","50","86","30","1","9","0","0"
"1843","j","30","3","0","245","74","50","82","0","9","0","0"
"1221","j","0","3","0","246","39","78","53","1","9","1","0"
