"rt","key_press","reward","color_reward_index","type","trial_num","stim_1","stim_2","new_stim","change_index","block","changed","marble_set"
"7763","d","25","0","1","1","11","7","16","0","0","0","5"
"1407","d","28","0","1","2","12","64","29","0","0","0","5"
"1146","f","26","0","1","3","15","86","90","0","0","0","5"
"1382","f","28","0","1","4","99","84","33","0","0","0","5"
"1987","d","28","0","1","5","65","98","18","0","0","0","5"
"832","d","32","0","1","6","40","34","22","0","0","0","5"
"1458","f","25","0","1","7","11","0","65","0","0","0","5"
"952","d","28","0","1","8","23","81","30","0","0","0","5"
"1032","f","27","0","1","9","92","36","24","0","0","0","5"
"727","f","26","0","1","10","88","71","48","0","0","0","5"
"1164","f","26","0","1","11","68","86","50","0","0","0","5"
"765","d","32","0","1","12","29","72","31","0","0","0","5"
"1130","f","31","0","1","13","74","82","26","0","0","0","5"
"887","d","31","0","1","14","82","84","81","0","0","0","5"
"899","f","30","0","1","15","58","3","53","0","0","0","5"
"723","d","27","0","1","16","54","80","51","0","0","0","5"
"505","f","28","0","1","17","83","26","1","0","0","0","5"
"530","f","31","0","1","18","54","88","7","0","0","0","5"
"552","d","35","0","1","19","87","4","57","0","0","0","5"
"963","d","30","0","1","20","15","85","4","0","0","0","5"
"10734","k","0","0","0","21","33","17","10","1","0","0","5"
"5240","j","30","0","0","22","80","39","15","0","0","0","5"
"1905","k","0","0","0","23","20","82","65","1","0","0","5"
"9221","k","30","0","0","24","30","86","23","1","0","1","5"
"2470","j","30","0","0","25","58","60","94","1","0","0","5"
"2215","j","0","0","0","26","90","40","80","0","0","1","5"
"5644","k","30","0","0","27","41","2","25","0","0","1","5"
"2530","k","30","0","0","28","45","87","59","0","0","1","5"
"2440","j","30","0","0","29","88","25","39","1","0","0","5"
"2000","k","30","0","0","30","3","0","71","0","0","1","5"
"2305","j","30","0","0","31","10","22","62","0","0","0","5"
"1667","k","30","0","0","32","14","95","7","0","0","1","5"
"2317","j","30","0","0","33","94","92","63","1","0","0","5"
"2588","k","0","0","0","34","92","22","35","0","0","0","5"
"3350","j","30","0","0","35","72","68","52","1","0","0","5"
"2744","k","30","0","0","36","89","85","15","1","0","1","5"
"2499","k","30","0","0","37","89","18","35","1","0","1","5"
"1674","k","30","0","0","38","37","67","23","0","0","1","5"
"1818","k","30","0","0","39","93","98","58","0","0","1","5"
"1894","k","0","0","0","40","98","35","77","1","0","0","5"
"60521","","","","","","","","","","","",""
"15806","","","","","","","","","","","",""
"23328","","","","","","","","","","","",""
"18543","","","","","","","","","","","",""
"18255","","","","","","","","","","","",""
"4886","","","","","","","","","","","",""
"12266","","","","","","","","","","","",""
"4666","","","","","","","","","","","",""
"null","null","-1","0","0","49","86","65","60","1","0","0","5"
"null","null","-1","0","1","50","34","26","68","0","0","1","5"
"815","j","30","0","0","51","16","55","79","0","0","0","5"
"1406","k","30","0","0","52","89","60","46","0","0","1","5"
"1459","k","30","0","0","53","83","47","11","1","0","1","5"
"1563","k","30","0","0","54","14","16","34","0","0","1","5"
"null","null","-1","0","1","55","7","94","24","1","0","0","5"
"null","null","-1","0","1","56","34","9","52","0","0","1","5"
"null","null","-1","0","1","57","28","73","45","0","0","1","5"
"null","null","-1","0","1","58","48","84","27","0","0","0","5"
"1761","k","0","0","0","59","80","50","92","1","0","0","5"
"null","null","-1","0","1","60","62","21","75","1","0","1","5"
"null","null","-1","0","1","61","3","86","74","1","0","1","5"
"1713","k","0","0","0","62","44","64","19","1","0","0","5"
"null","null","-1","0","1","63","94","13","8","1","0","1","5"
"663","k","30","0","0","64","44","51","65","1","0","1","5"
"null","null","-1","0","1","65","42","44","2","0","0","0","5"
"null","null","-1","0","1","66","23","9","78","0","0","0","5"
"670","j","30","0","0","67","6","71","67","0","0","0","5"
"171","j","30","0","0","68","43","1","39","1","0","0","5"
"1521","j","0","0","0","69","59","86","35","0","1","1","5"
"null","null","-1","0","1","70","36","6","60","0","1","1","5"
"null","null","-1","0","1","71","96","39","66","0","1","0","5"
"1684","k","0","0","0","72","70","65","33","0","1","0","5"
"1910","j","30","0","0","73","33","0","67","0","1","0","5"
"1694","k","30","0","0","74","59","37","80","1","1","1","5"
"null","null","-1","0","1","75","40","80","53","0","1","1","5"
"1443","k","30","0","0","76","28","8","92","1","1","1","5"
"1432","j","30","0","0","77","78","80","26","1","1","0","5"
"1403","j","30","0","0","78","23","98","6","1","1","0","5"
"null","null","-1","0","1","79","95","14","79","1","1","1","5"
"null","null","-1","0","1","80","1","45","2","0","1","0","5"
"1077","d","31","0","1","81","82","11","37","0","1","0","5"
"1199","d","31","0","1","82","57","53","77","1","1","1","5"
"null","null","-1","0","0","83","39","95","16","1","1","1","5"
"1189","d","28","0","1","84","26","4","62","1","1","1","5"
"1245","f","28","0","1","85","42","65","3","0","1","1","5"
"1348","j","30","0","0","86","87","74","4","1","1","0","5"
"1376","f","29","0","1","87","83","33","3","1","1","0","5"
"1298","j","30","0","0","88","10","49","63","0","1","0","5"
"1293","f","31","1","1","89","45","98","16","0","2","1","5"
"1216","f","29","1","1","90","19","36","54","1","2","0","5"
"1284","j","30","1","0","91","23","52","71","0","2","0","5"
"1236","j","30","1","0","92","98","52","39","1","2","0","5"
"751","f","30","1","1","93","93","42","56","0","2","0","5"
"1437","k","30","1","0","94","49","22","14","1","2","1","5"
"1328","j","30","1","0","95","78","82","23","0","2","0","5"
"1272","k","30","1","0","96","59","82","42","0","2","1","5"
"1011","d","32","1","1","97","57","19","47","0","2","1","5"
"1410","f","30","1","1","98","39","22","41","1","2","1","5"
"1508","j","0","1","0","99","11","94","24","1","2","1","5"
"1379","f","27","1","1","100","58","16","6","0","2","0","5"
"1117","d","31","1","1","101","3","39","25","1","2","0","5"
"952","f","32","1","1","102","83","49","89","1","2","1","5"
"1576","f","31","1","1","103","84","98","50","1","2","0","5"
"1325","j","30","1","0","104","50","45","67","1","2","0","5"
"1823","k","30","1","0","105","16","71","71","1","2","1","5"
"1720","k","30","1","0","106","88","38","10","0","2","1","5"
"1917","j","30","1","0","107","30","75","81","0","2","0","5"
"1383","f","33","1","1","108","65","39","70","0","2","1","5"
"1886","k","30","2","0","109","16","2","43","1","3","1","5"
"null","null","-1","2","0","110","72","70","17","1","3","1","5"
"1501","f","32","2","1","111","73","54","78","0","3","1","5"
"1358","f","37","2","1","112","22","43","62","0","3","1","5"
"864","f","36","2","1","113","38","57","50","0","3","1","5"
"null","null","-1","2","0","114","80","90","85","1","3","1","5"
"null","null","-1","2","0","115","43","28","61","1","3","1","5"
"null","null","-1","2","1","116","96","62","61","0","3","0","5"
"null","null","-1","2","1","117","98","26","94","0","3","0","5"
"null","null","-1","2","1","118","60","51","74","1","3","0","5"
"1430","k","0","2","0","119","6","16","90","0","3","0","5"
"792","f","35","2","1","120","55","77","69","0","3","1","5"
"null","null","-1","2","0","121","91","15","83","1","3","0","5"
"1451","k","0","2","0","122","91","24","31","1","3","0","5"
"798","f","31","2","1","123","23","69","25","1","3","0","5"
"1173","j","30","2","0","124","5","40","74","0","3","0","5"
"1493","f","34","2","1","125","48","98","28","0","3","0","5"
"1080","f","32","2","1","126","28","78","3","1","3","0","5"
"1436","k","30","2","0","127","29","68","37","1","3","1","5"
"1652","j","0","2","0","128","50","45","17","0","3","1","5"
"null","null","-1","1","0","129","40","22","96","1","4","0","5"
"1252","j","30","1","0","130","34","3","12","0","4","0","5"
"1176","j","30","1","0","131","97","44","16","1","4","0","5"
"1036","j","30","1","0","132","58","15","23","0","4","0","5"
"1775","f","29","1","1","133","96","36","11","1","4","0","5"
"1968","k","30","1","0","134","93","72","61","1","4","1","5"
"1504","k","30","1","0","135","48","0","93","0","4","1","5"
"null","null","-1","1","1","136","43","33","87","1","4","0","5"
"null","null","-1","1","0","137","13","49","73","1","4","1","5"
"994","f","31","1","1","138","82","15","16","1","4","1","5"
"1425","f","31","1","1","139","92","94","34","1","4","1","5"
"1059","f","33","1","1","140","84","58","31","1","4","0","5"
"985","d","29","1","1","141","4","31","15","0","4","1","5"
"950","d","28","1","1","142","5","74","93","0","4","0","5"
"913","f","31","1","1","143","95","6","29","1","4","0","5"
"1796","k","30","1","0","144","96","81","46","0","4","1","5"
"1494","k","30","1","0","145","22","35","11","0","4","1","5"
"763","d","27","1","1","146","25","72","3","0","4","0","5"
"932","f","28","1","1","147","21","68","9","0","4","1","5"
"1208","k","30","1","0","148","92","90","62","0","4","1","5"
"null","null","-1","4","0","149","29","98","56","0","5","0","5"
"1107","k","0","4","0","150","14","15","21","1","5","0","5"
"1090","d","32","4","1","151","31","95","28","0","5","1","5"
"1405","k","30","4","0","152","80","1","17","0","5","1","5"
"950","f","31","4","1","153","89","59","93","1","5","0","5"
"1181","k","30","4","0","154","13","10","41","0","5","1","5"
"985","f","33","4","1","155","93","20","42","0","5","1","5"
"1941","k","0","4","0","156","75","8","12","0","5","0","5"
"1299","f","37","4","1","157","94","14","41","1","5","0","5"
"1704","k","30","4","0","158","36","30","1","1","5","1","5"
"1565","j","30","4","0","159","22","72","9","0","5","0","5"
"891","d","33","4","1","160","61","31","25","1","5","0","5"
"635","d","35","4","1","161","40","0","97","1","5","1","5"
"951","d","32","4","1","162","77","40","29","1","5","0","5"
"1995","j","0","4","0","163","29","17","38","0","5","1","5"
"1715","j","0","4","0","164","94","77","84","1","5","1","5"
"872","d","31","4","1","165","21","0","36","1","5","0","5"
"1195","f","33","4","1","166","60","75","36","1","5","0","5"
"764","d","32","4","1","167","22","38","88","0","5","1","5"
"187","k","30","4","0","168","45","93","34","0","5","1","5"
"1394","k","0","4","0","169","63","52","72","0","6","0","5"
"1198","j","0","4","0","170","76","55","10","0","6","1","5"
"772","d","36","4","1","171","66","51","68","1","6","0","5"
"1717","k","30","4","0","172","96","6","15","1","6","1","5"
"1156","j","0","4","0","173","81","46","20","1","6","1","5"
"1230","k","30","4","0","174","51","15","37","1","6","1","5"
"867","d","37","4","1","175","88","56","60","0","6","0","5"
"721","d","31","4","1","176","59","60","70","1","6","0","5"
"1294","k","30","4","0","177","27","58","80","0","6","1","5"
"795","d","34","4","1","178","89","82","53","1","6","1","5"
"837","d","32","4","1","179","31","32","28","1","6","1","5"
"1127","k","0","4","0","180","30","11","79","1","6","0","5"
"1285","j","0","4","0","181","24","18","7","1","6","1","5"
"837","d","31","4","1","182","35","3","86","0","6","1","5"
"1192","f","31","4","1","183","10","35","51","0","6","0","5"
"1320","d","33","4","1","184","61","72","56","1","6","0","5"
"1244","d","40","4","1","185","19","1","92","0","6","0","5"
"1128","d","35","4","1","186","67","88","51","0","6","1","5"
"null","null","-1","4","0","187","98","81","42","0","6","0","5"
"862","k","0","4","0","188","71","18","62","0","6","0","5"
"1368","j","0","3","0","189","86","76","93","0","7","1","5"
"1079","d","30","3","1","190","59","42","82","0","7","0","5"
"1605","k","0","3","0","191","88","19","62","1","7","0","5"
"1355","k","30","3","0","192","84","47","19","0","7","1","5"
"863","d","30","3","1","193","12","55","29","1","7","0","5"
"1111","k","30","3","0","194","99","43","80","0","7","1","5"
"736","d","33","3","1","195","63","58","81","1","7","1","5"
"858","d","27","3","1","196","16","40","89","0","7","0","5"
"1064","d","34","3","1","197","50","36","77","0","7","1","5"
"835","d","28","3","1","198","45","50","6","1","7","0","5"
"1173","k","30","3","0","199","87","22","14","0","7","1","5"
"916","d","30","3","1","200","59","9","87","0","7","0","5"
"1010","f","33","3","1","201","91","67","8","0","7","0","5"
"1570","j","30","3","0","202","27","9","59","1","7","0","5"
"763","d","34","3","1","203","40","44","11","1","7","1","5"
"878","f","33","3","1","204","94","67","27","1","7","0","5"
"1414","k","30","3","0","205","26","47","0","1","7","1","5"
"1256","j","0","3","0","206","85","26","47","1","7","1","5"
"1357","k","30","3","0","207","14","59","58","0","7","1","5"
"1576","j","30","3","0","208","78","28","30","1","7","0","5"
"898","f","33","2","1","209","69","42","41","1","8","1","5"
"1309","f","30","2","1","210","31","11","38","0","8","1","5"
"1278","d","36","2","1","211","67","26","14","0","8","0","5"
"996","f","33","2","1","212","8","26","96","0","8","0","5"
"1959","f","35","2","1","213","39","61","54","1","8","0","5"
"799","d","38","2","1","214","1","24","20","1","8","0","5"
"822","f","37","2","1","215","58","43","20","1","8","1","5"
"1564","j","30","2","0","216","88","89","14","1","8","0","5"
"1236","j","0","2","0","217","6","4","18","1","8","1","5"
"1609","k","30","2","0","218","85","65","86","0","8","1","5"
"1536","j","30","2","0","219","77","68","72","0","8","0","5"
"null","null","-1","2","0","220","15","70","6","1","8","1","5"
"1055","d","36","2","1","221","82","0","87","1","8","0","5"
"1413","k","0","2","0","222","89","84","32","0","8","0","5"
"1645","k","30","2","0","223","71","83","96","0","8","1","5"
"1316","k","30","2","0","224","23","54","63","1","8","1","5"
"958","d","35","2","1","225","76","79","47","1","8","1","5"
"1202","k","0","2","0","226","26","29","73","0","8","0","5"
"1281","d","30","2","1","227","11","19","75","0","8","0","5"
"1146","k","30","2","0","228","51","21","17","0","8","1","5"
"1474","k","0","3","0","229","9","80","41","0","9","0","5"
"870","d","30","3","1","230","35","41","29","1","9","1","5"
"1818","k","0","3","0","231","54","23","11","0","9","0","5"
"772","d","31","3","1","232","84","52","77","1","9","1","5"
"1978","d","33","3","1","233","64","24","96","1","9","1","5"
"1208","d","30","3","1","234","4","9","8","1","9","1","5"
"954","f","35","3","1","235","72","29","35","1","9","1","5"
"null","null","-1","3","0","236","84","11","6","1","9","0","5"
"1701","k","0","3","0","237","6","85","91","0","9","0","5"
"845","f","31","3","1","238","7","2","46","0","9","1","5"
"1259","j","0","3","0","239","52","18","80","1","9","1","5"
"1324","j","30","3","0","240","34","41","90","0","9","0","5"
"1158","j","30","3","0","241","78","53","29","0","9","0","5"
"1397","k","30","3","0","242","9","74","13","1","9","1","5"
"1310","k","0","3","0","243","16","29","52","0","9","0","5"
"1240","j","0","3","0","244","41","44","81","0","9","1","5"
"1021","f","35","3","1","245","84","39","93","1","9","0","5"
"1092","f","32","3","1","246","15","75","55","0","9","0","5"
"1655","f","32","3","1","247","4","3","25","0","9","1","5"
"1080","f","30","3","1","248","9","59","3","1","9","0","5"
