"rt","key_press","reward","color_reward_index","type","trial_num","stim_1","stim_2","new_stim","change_index","block","changed","marble_set"
"13276","f","30","0","1","1","96","3","85","0","0","0","1"
"4.799999997019768","f","32","0","1","2","57","96","37","0","0","0","1"
"558.1999999955297","f","31","0","1","3","93","49","98","0","0","0","1"
"956.6000000014901","f","28","0","1","4","46","52","91","0","0","0","1"
"509","f","27","0","1","5","68","18","15","0","0","0","1"
"429.69999999552965","f","26","0","1","6","54","86","68","0","0","0","1"
"412.5","f","32","0","1","7","53","41","68","0","0","0","1"
"220.80000000447035","f","32","0","1","8","6","29","23","0","0","0","1"
"333.6000000014901","f","30","0","1","9","46","76","86","0","0","0","1"
"188.69999999552965","f","32","0","1","10","55","17","15","0","0","0","1"
"605.5","f","27","0","1","11","80","48","27","0","0","0","1"
"8693.10000000149","f","26","0","1","12","99","25","13","0","0","0","1"
"230.19999999552965","f","32","0","1","13","14","40","58","0","0","0","1"
"61.5","f","32","0","1","14","76","13","34","0","0","0","1"
"5.800000004470348","f","32","0","1","15","5","17","92","0","0","0","1"
"52.70000000298023","f","31","0","1","16","9","82","24","0","0","0","1"
"196.59999999403954","f","26","0","1","17","95","97","85","0","0","0","1"
"174.09999999403954","f","28","0","1","18","74","31","21","0","0","0","1"
"957.2999999970198","f","26","0","1","19","17","47","73","0","0","0","1"
"356.70000000298023","f","26","0","1","20","45","86","53","0","0","0","1"
"3500.89999999851","k","0","0","0","21","58","14","53","1","0","0","1"
"1101.9000000059605","k","0","0","0","22","52","92","91","1","0","0","1"
"1315.8999999985099","k","0","0","0","23","64","63","53","0","0","0","1"
"1268.6999999955297","k","0","0","0","24","91","50","26","1","0","0","1"
"340.29999999701977","k","0","0","0","25","45","76","3","0","0","0","1"
"3636.39999999851","k","30","0","0","26","55","13","60","0","0","1","1"
"756.7999999970198","k","0","0","0","27","50","56","47","1","0","0","1"
"316.80000000447035","k","0","0","0","28","65","78","22","1","0","0","1"
"317.3999999985099","k","30","0","0","29","95","51","18","0","0","1","1"
"476.20000000298023","k","30","0","0","30","48","46","44","1","0","1","1"
"12.800000004470348","k","0","0","0","31","6","53","40","1","0","0","1"
"684.6999999955297","k","30","0","0","32","53","92","51","1","0","1","1"
"1253.2999999970198","k","30","0","0","33","23","49","18","0","0","1","1"
"621.1000000014901","k","30","0","0","34","26","88","9","0","0","1","1"
"116.70000000298023","k","0","0","0","35","42","37","14","1","0","0","1"
"645.3000000044703","k","30","0","0","36","80","5","94","0","0","1","1"
"549","k","0","0","0","37","20","64","40","0","0","0","1"
"620.8999999985099","k","30","0","0","38","9","34","30","0","0","1","1"
"2741.2999999970198","k","0","0","0","39","84","2","65","0","0","0","1"
"373.3999999985099","k","30","0","0","40","99","93","69","1","0","1","1"
"7054.10000000149","","","","","","","","","","","",""
"7407.39999999851","","","","","","","","","","","",""
"4558.10000000149","","","","","","","","","","","",""
"6032.30000000447","","","","","","","","","","","",""
"3279.10000000149","","","","","","","","","","","",""
"3728","","","","","","","","","","","",""
"3791.0999999940395","","","","","","","","","","","",""
"3143.89999999851","","","","","","","","","","","",""
"null","null","-1","0","0","49","20","13","72","1","0","0","1"
"48.69999999552965","f","32","0","1","50","94","41","26","1","0","1","1"
"null","null","-1","0","1","51","73","90","58","1","0","1","1"
"508.70000000298023","d","30","0","1","52","63","8","98","0","0","1","1"
"151.80000000447035","f","30","0","1","53","83","15","76","0","0","0","1"
"null","null","-1","0","0","54","25","28","32","0","0","1","1"
"229.69999999552965","d","30","0","1","55","7","53","58","1","0","1","1"
"102.89999999850988","f","32","0","1","56","59","53","85","1","0","1","1"
"null","null","-1","0","0","57","16","93","87","0","0","1","1"
"1885.2999999970198","k","30","0","0","58","56","17","11","1","0","1","1"
"1023","k","0","0","0","59","89","3","61","1","0","0","1"
"1001","f","28","0","1","60","30","4","16","0","0","0","1"
"927.3999999985099","k","0","0","0","61","16","41","81","1","0","0","1"
"863.8999999985099","k","0","0","0","62","96","85","76","1","0","0","1"
"959.6000000014901","k","30","0","0","63","24","13","42","0","0","1","1"
"543.6999999955297","k","0","0","0","64","90","98","5","1","0","0","1"
"351.30000000447035","d","28","0","1","65","44","26","77","0","0","0","1"
"39.29999999701977","k","0","0","0","66","23","95","56","0","0","0","1"
"1154.3999999985099","f","32","0","1","67","49","29","23","0","0","1","1"
"951.1000000014901","f","33","0","1","68","36","19","97","0","0","0","1"
"1418.4000000059605","k","0","1","0","69","17","18","42","1","1","0","1"
"1174.8999999985099","f","28","1","1","70","77","97","51","0","1","1","1"
"null","null","-1","1","0","71","62","91","31","1","1","1","1"
"932.6999999955297","k","30","1","0","72","66","2","13","0","1","1","1"
"920.2999999970198","f","33","1","1","73","48","32","52","0","1","1","1"
"886.3999999985099","k","30","1","0","74","71","64","0","1","1","1","1"
"838.6999999955297","k","0","1","0","75","27","79","85","0","1","0","1"
"990.7000000029802","f","30","1","1","76","49","84","3","1","1","0","1"
"569.1000000014901","d","32","1","1","77","57","76","30","0","1","0","1"
"1221.6000000014901","k","0","1","0","78","11","41","41","0","1","0","1"
"928.6000000014901","k","30","1","0","79","56","15","83","1","1","1","1"
"906.2000000029802","d","33","1","1","80","29","1","0","1","1","0","1"
"927.5999999940395","f","29","1","1","81","71","12","20","0","1","1","1"
"567","f","30","1","1","82","35","2","97","0","1","0","1"
"1526.8999999985099","k","0","1","0","83","55","92","21","1","1","0","1"
"1695.4000000059605","d","36","1","1","84","1","28","90","1","1","1","1"
"null","null","-1","1","0","85","55","13","14","0","1","1","1"
"null","null","-1","1","1","86","93","2","83","1","1","1","1"
"1379.8000000044703","k","0","1","0","87","25","43","4","1","1","0","1"
"601","f","33","1","1","88","1","53","8","0","1","0","1"
"null","null","-1","1","0","89","46","34","98","0","2","0","1"
"934.3999999985099","f","31","1","1","90","73","6","16","1","2","0","1"
"806.2999999970198","f","29","1","1","91","72","26","90","1","2","1","1"
"null","null","-1","1","0","92","50","92","59","0","2","0","1"
"845.2000000029802","f","31","1","1","93","23","75","64","1","2","1","1"
"1112.6000000014901","k","30","1","0","94","95","7","75","0","2","1","1"
"1920.1000000014901","k","0","1","0","95","19","32","9","1","2","0","1"
"881.7999999970198","f","30","1","1","96","7","34","93","1","2","1","1"
"655.6000000014901","f","36","1","1","97","50","9","46","0","2","0","1"
"1016.3999999985099","k","30","1","0","98","51","9","27","1","2","1","1"
"990.7000000029802","k","0","1","0","99","82","92","61","1","2","0","1"
"841.2000000029802","f","33","1","1","100","82","41","71","1","2","1","1"
"984.1999999955297","f","30","1","1","101","17","31","94","0","2","1","1"
"879.6000000014901","f","29","1","1","102","59","81","8","0","2","0","1"
"919.2999999970198","k","0","1","0","103","1","97","18","1","2","0","1"
"952","k","0","1","0","104","80","31","85","0","2","0","1"
"967.9000000059605","k","30","1","0","105","25","66","10","0","2","1","1"
"999.6000000014901","k","30","1","0","106","44","32","51","0","2","1","1"
"969.7000000029802","d","28","1","1","107","97","62","64","1","2","1","1"
"896","f","27","1","1","108","89","71","36","0","2","0","1"
"1755.3999999985099","f","32","4","1","109","55","46","30","0","3","1","1"
"1552.6000000014901","k","0","4","0","110","48","4","13","1","3","0","1"
"967.1999999955297","f","31","4","1","111","27","35","78","1","3","1","1"
"1255.3999999985099","k","30","4","0","112","4","45","37","0","3","1","1"
"663.5","f","30","4","1","113","86","24","65","0","3","0","1"
"910.5","k","30","4","0","114","98","43","77","1","3","1","1"
"847.7000000029802","f","31","4","1","115","60","54","57","0","3","0","1"
"911.6000000014901","k","0","4","0","116","87","41","34","1","3","0","1"
"920.2999999970198","f","29","4","1","117","21","68","22","1","3","1","1"
"867.7000000029802","k","30","4","0","118","32","53","76","0","3","1","1"
"951.9000000059605","k","30","4","0","119","67","78","4","0","3","1","1"
"856","f","35","4","1","120","15","74","91","0","3","1","1"
"842.4000000059605","k","0","4","0","121","59","14","78","0","3","0","1"
"894.1000000014901","k","30","4","0","122","59","66","21","1","3","1","1"
"921","f","29","4","1","123","49","68","40","1","3","1","1"
"878.3999999985099","d","31","4","1","124","52","25","88","1","3","0","1"
"895.3000000044703","f","37","4","1","125","8","88","34","1","3","0","1"
"871.8999999985099","k","0","4","0","126","62","54","70","0","3","0","1"
"577","f","35","4","1","127","42","10","69","1","3","0","1"
"686.6999999955297","k","0","4","0","128","77","38","67","0","3","0","1"
"946.2000000029802","f","32","2","1","129","96","27","13","1","4","1","1"
"839","f","33","2","1","130","56","35","82","1","4","1","1"
"631.6999999955297","f","34","2","1","131","97","89","87","0","4","1","1"
"558.8999999985099","f","33","2","1","132","2","38","19","0","4","0","1"
"505.30000000447035","k","30","2","0","133","22","25","98","1","4","1","1"
"472.8999999985099","f","34","2","1","134","49","94","90","0","4","0","1"
"463.20000000298023","f","32","2","1","135","75","45","72","1","4","1","1"
"278.19999999552965","k","0","2","0","136","3","34","28","0","4","0","1"
"479.59999999403954","f","33","2","1","137","23","31","75","0","4","1","1"
"527.1000000014901","k","30","2","0","138","87","34","86","1","4","1","1"
"326.19999999552965","k","30","2","0","139","88","43","7","0","4","1","1"
"655","k","0","2","0","140","22","85","75","1","4","0","1"
"360.30000000447035","d","32","2","1","141","90","14","25","1","4","1","1"
"575","f","31","2","1","142","29","69","76","1","4","0","1"
"583.5999999940395","k","0","2","0","143","45","38","82","1","4","0","1"
"406.5","d","33","2","1","144","2","42","56","0","4","0","1"
"567.5","k","0","2","0","145","30","31","47","0","4","0","1"
"360.5","k","0","2","0","146","92","81","60","0","4","0","1"
"198.39999999850988","k","30","2","0","147","14","40","64","1","4","1","1"
"528.5","k","0","2","0","148","21","78","8","0","4","0","1"
"1495.8000000044703","k","0","0","0","149","58","29","48","0","5","0","1"
"959.1000000014901","k","0","0","0","150","37","19","61","0","5","0","1"
"639.6000000014901","d","32","0","1","151","29","86","63","1","5","1","1"
"573.7000000029802","k","30","0","0","152","10","58","31","0","5","1","1"
"588.5","d","28","0","1","153","4","68","41","0","5","1","1"
"631.1999999955297","k","0","0","0","154","47","66","7","1","5","0","1"
"30.80000000447035","k","30","0","0","155","92","39","59","1","5","1","1"
"95.09999999403954","f","26","0","1","156","40","93","65","1","5","1","1"
"157.90000000596046","k","0","0","0","157","99","3","51","0","5","0","1"
"214.79999999701977","f","28","0","1","158","89","65","91","0","5","0","1"
"223.60000000149012","f","32","0","1","159","82","43","88","1","5","1","1"
"56.600000001490116","f","29","0","1","160","54","33","78","0","5","0","1"
"207.70000000298023","k","30","0","0","161","13","88","94","1","5","1","1"
"208.29999999701977","f","30","0","1","162","42","75","36","0","5","0","1"
"184.60000000149012","k","0","0","0","163","85","87","50","1","5","0","1"
"1718.7000000029802","k","30","0","0","164","74","87","57","1","5","1","1"
"1542.8999999985099","k","30","0","0","165","5","18","68","1","5","1","1"
"1521.8999999985099","d","28","0","1","166","59","5","48","0","5","1","1"
"1416.6000000014901","d","35","0","1","167","9","0","48","1","5","0","1"
"1463.5","d","27","0","1","168","81","33","74","0","5","0","1"
"1338.3999999985099","k","0","2","0","169","7","96","18","1","6","0","1"
"1113.5999999940395","f","35","2","1","170","72","75","14","0","6","0","1"
"1375.8999999985099","k","0","2","0","171","77","45","42","0","6","0","1"
"831.6999999955297","f","40","2","1","172","17","87","70","0","6","1","1"
"799","k","30","2","0","173","16","36","35","1","6","1","1"
"470.29999999701977","k","0","2","0","174","46","84","16","0","6","0","1"
"null","null","-1","2","1","175","86","53","64","1","6","0","1"
"1097.2999999970198","d","35","2","1","176","7","37","2","0","6","0","1"
"767.6000000014901","k","30","2","0","177","82","34","63","1","6","1","1"
"520.1000000014901","d","35","2","1","178","76","88","42","0","6","1","1"
"456.59999999403954","k","0","2","0","179","29","24","83","1","6","0","1"
"160.40000000596046","f","31","2","1","180","42","72","64","1","6","0","1"
"166.60000000149012","k","30","2","0","181","12","77","51","0","6","1","1"
"536.1000000014901","f","31","2","1","182","86","72","66","0","6","0","1"
"575.1999999955297","f","34","2","1","183","12","33","21","1","6","1","1"
"568.7000000029802","k","30","2","0","184","60","90","11","1","6","1","1"
"335.29999999701977","k","30","2","0","185","59","82","52","0","6","1","1"
"744.6000000014901","f","36","2","1","186","43","74","93","0","6","1","1"
"470.70000000298023","k","0","2","0","187","49","13","8","1","6","0","1"
"775.8000000044703","f","33","2","1","188","94","55","17","1","6","1","1"
"834.0999999940395","f","31","4","1","189","27","35","17","0","7","0","1"
"576.3999999985099","f","32","4","1","190","57","46","38","1","7","1","1"
"446.69999999552965","k","30","4","0","191","26","55","89","1","7","1","1"
"598.8000000044703","f","31","4","1","192","93","12","74","0","7","1","1"
"383.20000000298023","k","30","4","0","193","18","73","23","0","7","1","1"
"344","k","0","4","0","194","91","8","19","1","7","0","1"
"222.79999999701977","k","0","4","0","195","4","25","90","0","7","0","1"
"840.3000000044703","f","40","4","1","196","60","1","25","0","7","0","1"
"757.5999999940395","f","31","4","1","197","50","83","34","0","7","0","1"
"1278.5","k","0","4","0","198","78","9","58","1","7","0","1"
"886","k","0","4","0","199","1","2","92","1","7","0","1"
"158.5","f","28","4","1","200","21","91","88","0","7","1","1"
"88.5","f","31","4","1","201","99","78","98","0","7","1","1"
"41","k","30","4","0","202","17","63","0","0","7","1","1"
"94.60000000149012","f","34","4","1","203","88","33","60","1","7","1","1"
"143.89999999850988","k","0","4","0","204","14","7","85","1","7","0","1"
"160","k","0","4","0","205","68","96","77","0","7","0","1"
"696.5","k","0","4","0","206","40","51","69","1","7","0","1"
"79.69999999552965","f","31","4","1","207","58","78","77","1","7","1","1"
"133.80000000447035","d","35","4","1","208","67","38","79","1","7","1","1"
"1161.1000000014901","k","30","3","0","209","12","14","42","1","8","1","1"
"704.6000000014901","f","35","3","1","210","3","43","43","1","8","0","1"
"895","f","28","3","1","211","23","93","21","1","8","1","1"
"1639.3999999985099","k","30","3","0","212","46","15","16","0","8","1","1"
"800","f","35","3","1","213","83","32","22","0","8","1","1"
"71.5","f","28","3","1","214","55","93","11","1","8","1","1"
"1454.3999999985099","k","30","3","0","215","26","37","10","0","8","1","1"
"711.1999999955297","f","27","3","1","216","80","71","58","1","8","1","1"
"1015.5","k","0","3","0","217","51","3","35","0","8","0","1"
"103.29999999701977","f","38","3","1","218","88","9","49","1","8","1","1"
"990.9000000059605","k","30","3","0","219","99","38","85","0","8","1","1"
"744.5","k","0","3","0","220","10","38","52","0","8","0","1"
"1183.2000000029802","k","0","3","0","221","16","0","4","0","8","0","1"
"null","null","-1","3","1","222","79","30","78","1","8","0","1"
"null","null","-1","3","0","223","70","10","98","1","8","0","1"
"null","null","-1","3","0","224","23","74","79","1","8","1","1"
"null","null","-1","3","1","225","93","4","9","0","8","0","1"
"null","null","-1","3","1","226","73","33","37","0","8","0","1"
"null","null","-1","3","0","227","58","29","68","1","8","0","1"
"null","null","-1","3","1","228","50","11","4","0","8","0","1"
"905.3999999985099","k","30","3","0","229","71","2","1","0","9","1","1"
"null","null","-1","3","1","230","36","85","56","0","9","1","1"
"918.6000000014901","f","33","3","1","231","67","49","14","1","9","0","1"
"815.3999999985099","k","0","3","0","232","13","42","6","1","9","0","1"
"712","f","30","3","1","233","69","8","7","1","9","1","1"
"null","null","-1","3","0","234","81","48","87","1","9","1","1"
"1958.5","f","27","3","1","235","65","37","11","0","9","1","1"
"798.6000000014901","k","30","3","0","236","57","98","80","1","9","1","1"
"1023.5","k","0","3","0","237","79","67","41","0","9","0","1"
"926.1000000014901","k","0","3","0","238","2","13","54","0","9","0","1"
"681.1000000014901","f","28","3","1","239","70","30","98","0","9","0","1"
"1438","k","30","3","0","240","6","21","80","0","9","1","1"
"912","f","28","3","1","241","98","68","78","1","9","1","1"
"847.5","f","35","3","1","242","9","43","32","0","9","0","1"
"798.1999999955297","k","30","3","0","243","6","50","97","0","9","1","1"
"718.8000000044703","f","32","3","1","244","41","70","43","1","9","1","1"
"1111.5","k","0","3","0","245","50","20","83","0","9","0","1"
"null","null","-1","3","0","246","54","11","85","1","9","0","1"
"758.6999999955297","d","30","3","1","247","35","38","61","1","9","0","1"
"785.2999999970198","d","34","3","1","248","10","4","21","1","9","0","1"
