"rt","key_press","reward","color_reward_index","type","trial_num","stim_1","stim_2","new_stim","change_index","block","changed","marble_set"
"1153","f","26","0","1","1","52","93","39","0","0","0","5"
"541","d","26","0","1","2","93","50","44","0","0","0","5"
"266","d","28","0","1","3","26","74","59","0","0","0","5"
"450","f","27","0","1","4","95","48","53","0","0","0","5"
"441","f","27","0","1","5","15","68","10","0","0","0","5"
"186","f","27","0","1","6","77","28","93","0","0","0","5"
"296","f","27","0","1","7","81","85","52","0","0","0","5"
"642","d","32","0","1","8","13","74","47","0","0","0","5"
"199","d","31","0","1","9","67","52","19","0","0","0","5"
"144","d","26","0","1","10","25","83","88","0","0","0","5"
"264","f","29","0","1","11","51","89","74","0","0","0","5"
"406","d","28","0","1","12","8","23","84","0","0","0","5"
"93","d","29","0","1","13","33","41","11","0","0","0","5"
"672","f","32","0","1","14","16","32","49","0","0","0","5"
"808","f","26","0","1","15","98","91","16","0","0","0","5"
"92","f","26","0","1","16","59","69","51","0","0","0","5"
"680","f","29","0","1","17","45","98","63","0","0","0","5"
"624","d","27","0","1","18","20","51","27","0","0","0","5"
"655","f","30","0","1","19","27","58","46","0","0","0","5"
"404","d","27","0","1","20","83","10","18","0","0","0","5"
"4066","j","0","0","0","21","33","66","21","1","0","1","5"
"1010","j","30","0","0","22","92","9","18","0","0","0","5"
"639","j","0","0","0","23","66","64","94","0","0","1","5"
"206","j","30","0","0","24","59","35","63","0","0","0","5"
"579","j","0","0","0","25","26","38","62","1","0","1","5"
"50","j","0","0","0","26","47","87","78","0","0","1","5"
"79","k","30","0","0","27","78","35","57","1","0","1","5"
"581","j","0","0","0","28","67","75","63","1","0","1","5"
"173","j","30","0","0","29","78","18","70","1","0","0","5"
"372","j","30","0","0","30","11","42","76","1","0","0","5"
"76","j","30","0","0","31","28","41","39","1","0","0","5"
"429","j","0","0","0","32","86","74","24","1","0","1","5"
"393","j","30","0","0","33","74","14","64","1","0","0","5"
"60","k","30","0","0","34","47","44","82","0","0","1","5"
"495","k","0","0","0","35","62","30","96","0","0","0","5"
"329","j","30","0","0","36","7","35","31","0","0","0","5"
"207","j","30","0","0","37","20","58","24","0","0","0","5"
"158","j","0","0","0","38","52","23","96","1","0","1","5"
"1492","k","30","0","0","39","76","16","79","1","0","1","5"
"1785","k","0","0","0","40","3","18","60","0","0","0","5"
"3598","","","","","","","","","","","",""
"3375","","","","","","","","","","","",""
"957","k","30","1","0","43","54","84","88","0","0","1","5"
"861","j","0","1","0","44","20","51","13","0","0","1","5"
"461","j","0","1","0","45","25","50","65","1","0","1","5"
"124","f","33","1","1","46","30","88","26","0","0","0","5"
"121","k","0","1","0","47","87","2","0","0","0","0","5"
"223","f","32","1","1","48","90","96","71","1","0","1","5"
"511","j","30","1","0","49","86","95","63","0","0","0","5"
"530","f","35","1","1","50","97","13","6","1","0","1","5"
"80","d","28","1","1","51","90","72","18","0","0","1","5"
"60","k","0","1","0","52","98","31","29","1","0","0","5"
"null","null","-1","1","1","53","95","17","56","1","0","1","5"
"30","d","33","1","1","54","43","84","22","1","0","1","5"
"217","d","29","1","1","55","73","91","2","0","0","1","5"
"null","null","-1","1","0","56","89","29","40","0","0","0","5"
"659","d","31","1","1","57","89","36","47","1","0","0","5"
"259","k","30","1","0","58","88","21","26","0","0","1","5"
"28","j","30","1","0","59","79","67","92","1","0","0","5"
"509","d","33","1","1","60","17","82","37","1","0","0","5"
"970","d","32","1","1","61","63","89","20","0","0","0","5"
"812","j","30","1","0","62","59","49","43","1","0","0","5"
"null","null","-1","3","0","63","79","89","39","1","1","1","5"
"null","null","-1","3","0","64","34","66","66","0","1","0","5"
"771","j","30","3","0","65","4","82","11","1","1","0","5"
"null","null","-1","3","0","66","79","15","62","0","1","1","5"
"null","null","-1","3","1","67","26","85","44","1","1","1","5"
"null","null","-1","3","0","68","35","15","10","1","1","1","5"
"null","null","-1","3","1","69","86","78","82","1","1","1","5"
"null","null","-1","3","0","70","74","2","58","0","1","1","5"
"null","null","-1","3","1","71","22","57","63","0","1","0","5"
"null","null","-1","3","0","72","76","91","1","0","1","0","5"
"null","null","-1","3","0","73","96","67","81","0","1","0","5"
"null","null","-1","3","1","74","82","92","91","1","1","1","5"
"null","null","-1","3","0","75","59","45","43","0","1","0","5"
"null","null","-1","3","1","76","17","71","20","1","1","0","5"
"null","null","-1","3","1","77","23","4","35","0","1","0","5"
"null","null","-1","3","1","78","76","24","83","0","1","0","5"
"null","null","-1","3","0","79","63","59","17","0","1","1","5"
"null","null","-1","3","1","80","58","61","44","1","1","1","5"
"null","null","-1","3","1","81","93","23","35","1","1","1","5"
"null","null","-1","3","1","82","9","30","5","1","1","0","5"
"null","null","-1","1","1","83","59","64","8","1","2","0","5"
"null","null","-1","1","1","84","65","59","12","1","2","1","5"
"null","null","-1","1","0","85","26","8","56","1","2","1","5"
"null","null","-1","1","0","86","78","96","89","1","2","1","5"
"null","null","-1","1","0","87","95","37","42","1","2","0","5"
"null","null","-1","1","0","88","85","42","1","0","2","0","5"
"null","null","-1","1","0","89","82","57","51","0","2","1","5"
"null","null","-1","1","1","90","65","62","20","0","2","1","5"
"null","null","-1","1","1","91","66","5","20","1","2","1","5"
"null","null","-1","1","1","92","85","50","63","0","2","1","5"
"null","null","-1","1","0","93","52","58","86","0","2","0","5"
"null","null","-1","1","1","94","50","91","66","0","2","0","5"
"null","null","-1","1","0","95","7","27","81","1","2","1","5"
"null","null","-1","1","0","96","13","39","3","0","2","1","5"
"null","null","-1","1","1","97","17","79","60","1","2","1","5"
"null","null","-1","1","1","98","43","25","45","1","2","0","5"
"null","null","-1","1","0","99","31","52","2","1","2","0","5"
"null","null","-1","1","1","100","69","98","87","0","2","0","5"
"null","null","-1","1","0","101","96","83","47","0","2","0","5"
"null","null","-1","1","1","102","11","7","0","0","2","0","5"
"null","null","-1","0","0","103","15","1","83","1","3","0","5"
"null","null","-1","0","1","104","72","54","10","1","3","1","5"
"null","null","-1","0","1","105","80","26","85","1","3","0","5"
"null","null","-1","0","0","106","7","67","50","0","3","0","5"
"null","null","-1","0","0","107","63","23","11","1","3","1","5"
"null","null","-1","0","0","108","5","28","78","0","3","1","5"
"null","null","-1","0","1","109","70","57","3","0","3","0","5"
"null","null","-1","0","0","110","5","45","0","1","3","1","5"
"null","null","-1","0","1","111","42","35","74","0","3","1","5"
"null","null","-1","0","0","112","94","64","35","0","3","0","5"
"null","null","-1","0","1","113","79","94","84","0","3","1","5"
"1902","k","30","0","0","114","98","27","1","0","3","1","5"
"null","null","-1","0","1","115","67","57","61","0","3","1","5"
"null","null","-1","0","1","116","63","17","51","1","3","0","5"
"null","null","-1","0","1","117","23","50","35","0","3","1","5"
"null","null","-1","0","1","118","5","30","35","0","3","1","5"
"null","null","-1","0","0","119","49","30","73","1","3","0","5"
"null","null","-1","0","0","120","98","54","72","1","3","0","5"
"null","null","-1","0","1","121","43","6","16","1","3","0","5"
"null","null","-1","0","0","122","53","46","19","1","3","0","5"
"null","null","-1","0","0","123","29","88","98","0","4","0","5"
"null","null","-1","0","0","124","23","5","44","0","4","1","5"
"null","null","-1","0","1","125","38","54","22","1","4","1","5"
"null","null","-1","0","1","126","76","78","84","1","4","1","5"
"null","null","-1","0","0","127","17","62","23","0","4","1","5"
"null","null","-1","0","0","128","58","60","19","0","4","1","5"
"null","null","-1","0","1","129","36","44","71","1","4","0","5"
"null","null","-1","0","1","130","91","93","53","1","4","1","5"
"null","null","-1","0","1","131","52","5","21","0","4","0","5"
"null","null","-1","0","0","132","16","60","38","1","4","0","5"
"null","null","-1","0","0","133","4","81","17","0","4","0","5"
"null","null","-1","0","0","134","82","26","12","1","4","0","5"
"null","null","-1","0","1","135","71","75","15","1","4","0","5"
"null","null","-1","0","1","136","51","36","26","0","4","0","5"
"null","null","-1","0","1","137","17","51","6","1","4","1","5"
"null","null","-1","0","1","138","99","25","55","1","4","1","5"
"null","null","-1","0","0","139","58","3","59","0","4","0","5"
"null","null","-1","0","1","140","90","98","66","0","4","1","5"
"null","null","-1","0","0","141","27","91","0","1","4","0","5"
"null","null","-1","0","0","142","91","27","16","0","4","1","5"
"null","null","-1","4","1","143","43","27","63","1","5","0","5"
"null","null","-1","4","1","144","24","35","93","0","5","1","5"
"null","null","-1","4","0","145","55","58","25","1","5","0","5"
"null","null","-1","4","1","146","54","51","17","0","5","1","5"
"null","null","-1","4","1","147","32","76","56","0","5","0","5"
"null","null","-1","4","0","148","42","78","98","0","5","1","5"
"null","null","-1","4","1","149","96","7","9","1","5","1","5"
"null","null","-1","4","0","150","34","33","16","1","5","0","5"
"null","null","-1","4","0","151","58","48","16","0","5","1","5"
"null","null","-1","4","0","152","2","52","17","1","5","0","5"
"null","null","-1","4","0","153","2","72","9","0","5","1","5"
"null","null","-1","4","1","154","2","70","15","1","5","1","5"
"null","null","-1","4","1","155","80","60","69","1","5","0","5"
"null","null","-1","4","0","156","58","44","27","0","5","1","5"
"934","f","36","4","1","157","14","43","12","1","5","0","5"
"855","j","30","4","0","158","69","33","97","1","5","0","5"
"null","null","-1","4","1","159","62","19","80","0","5","1","5"
"null","null","-1","4","1","160","87","56","17","0","5","0","5"
"null","null","-1","4","0","161","13","1","91","0","5","1","5"
"1074","j","30","4","0","162","29","55","51","1","5","0","5"
"1044","f","32","2","1","163","61","54","24","1","6","0","5"
"733","j","30","2","0","164","46","83","23","1","6","0","5"
"null","null","-1","2","1","165","42","79","91","1","6","1","5"
"817","f","33","2","1","166","50","22","45","1","6","0","5"
"1077","j","30","2","0","167","5","6","60","0","6","0","5"
"1135","j","30","2","0","168","33","36","57","0","6","0","5"
"1091","f","35","2","1","169","28","6","36","0","6","1","5"
"1688","j","30","2","0","170","19","6","64","0","6","0","5"
"961","f","32","2","1","171","38","18","20","1","6","0","5"
"1623","f","31","2","1","172","7","80","19","1","6","1","5"
"860","f","36","2","1","173","9","82","78","1","6","1","5"
"888","j","0","2","0","174","30","26","77","0","6","1","5"
"null","null","-1","2","1","175","97","39","32","0","6","0","5"
"1283","j","0","2","0","176","46","39","84","0","6","1","5"
"1305","j","30","2","0","177","86","28","10","0","6","0","5"
"null","null","-1","2","1","178","8","38","38","1","6","0","5"
"1199","j","0","2","0","179","67","2","87","0","6","1","5"
"1263","j","0","2","0","180","21","3","60","0","6","1","5"
"869","f","32","2","1","181","73","20","63","1","6","1","5"
"1295","k","30","2","0","182","5","43","17","1","6","1","5"
"1408","j","30","3","0","183","11","40","52","0","7","0","5"
"1014","k","0","3","0","184","10","42","60","1","7","0","5"
"1305","j","0","3","0","185","2","1","41","0","7","1","5"
"1125","k","0","3","0","186","34","42","26","1","7","0","5"
"1120","d","29","3","1","187","36","79","56","0","7","1","5"
"1007","d","28","3","1","188","47","61","24","1","7","1","5"
"1515","f","27","3","1","189","18","16","95","0","7","1","5"
"1238","k","0","3","0","190","48","24","75","0","7","0","5"
"1014","f","30","3","1","191","34","23","0","0","7","0","5"
"967","j","30","3","0","192","14","46","3","0","7","0","5"
"1115","k","30","3","0","193","88","36","16","1","7","1","5"
"698","f","30","3","1","194","37","35","0","1","7","0","5"
"860","f","29","3","1","195","89","21","91","0","7","1","5"
"1001","f","31","3","1","196","17","95","24","1","7","1","5"
"1139","k","0","3","0","197","69","36","46","1","7","0","5"
"1103","k","0","3","0","198","78","16","71","1","7","0","5"
"1194","k","30","3","0","199","95","12","11","1","7","1","5"
"556","f","35","3","1","200","55","39","86","0","7","0","5"
"906","f","30","3","1","201","41","35","89","1","7","1","5"
"914","f","27","3","1","202","62","80","46","0","7","1","5"
"1790","k","30","2","0","203","68","18","84","1","8","1","5"
"1239","f","37","2","1","204","48","13","21","0","8","0","5"
"849","f","33","2","1","205","84","34","42","0","8","1","5"
"1549","k","30","2","0","206","21","28","43","0","8","1","5"
"800","f","33","2","1","207","17","4","83","1","8","1","5"
"669","f","31","2","1","208","89","25","39","0","8","0","5"
"888","k","0","2","0","209","34","12","48","1","8","0","5"
"1160","f","32","2","1","210","10","78","31","1","8","0","5"
"1035","k","30","2","0","211","29","69","2","0","8","1","5"
"899","f","36","2","1","212","72","82","5","0","8","0","5"
"753","j","30","2","0","213","46","24","77","1","8","0","5"
"1387","j","30","2","0","214","60","45","88","0","8","0","5"
"922","j","0","2","0","215","81","7","47","1","8","1","5"
"862","f","33","2","1","216","64","8","1","0","8","0","5"
"875","k","30","2","0","217","88","83","97","1","8","1","5"
"854","f","37","2","1","218","67","50","19","0","8","1","5"
"1335","f","37","2","1","219","4","66","24","1","8","1","5"
"1102","k","30","2","0","220","72","64","10","1","8","1","5"
"1121","k","0","2","0","221","67","83","27","0","8","0","5"
"802","f","33","2","1","222","9","12","4","1","8","0","5"
"1317","j","30","4","0","223","61","83","58","0","9","0","5"
"882","f","30","4","1","224","68","5","24","0","9","0","5"
"1318","f","30","4","1","225","20","69","84","0","9","0","5"
"1150","k","0","4","0","226","66","48","20","1","9","0","5"
"768","f","31","4","1","227","5","78","9","0","9","0","5"
"1306","k","30","4","0","228","12","13","19","0","9","1","5"
"1140","f","32","4","1","229","62","60","12","1","9","1","5"
"962","f","31","4","1","230","47","21","92","1","9","1","5"
"1221","k","30","4","0","231","10","89","93","1","9","1","5"
"1046","j","30","4","0","232","87","91","1","0","9","0","5"
"868","j","0","4","0","233","87","81","22","1","9","1","5"
"1203","f","34","4","1","234","76","33","2","1","9","0","5"
"878","f","40","4","1","235","36","1","89","1","9","1","5"
"969","f","32","4","1","236","23","60","77","1","9","1","5"
"982","k","0","4","0","237","60","62","24","1","9","0","5"
"982","k","30","4","0","238","6","18","88","0","9","1","5"
"1277","k","30","4","0","239","8","49","46","0","9","1","5"
"887","d","39","4","1","240","99","52","58","0","9","0","5"
"1023","k","0","4","0","241","83","3","42","1","9","0","5"
"903","f","29","4","1","242","24","27","60","0","9","1","5"
