"rt","key_press","reward","color_reward_index","type","trial_num","stim_1","stim_2","new_stim","change_index","block","changed","marble_set"
"829","f","28","0","1","1","16","42","95","0","0","0","4"
"100","f","28","0","1","2","65","2","25","0","0","0","4"
"309","d","26","0","1","3","47","51","15","0","0","0","4"
"52","d","33","0","1","4","19","41","47","0","0","0","4"
"256","d","28","0","1","5","38","9","32","0","0","0","4"
"247","d","28","0","1","6","4","74","94","0","0","0","4"
"129","d","26","0","1","7","47","67","42","0","0","0","4"
"236","d","28","0","1","8","42","40","65","0","0","0","4"
"273","d","27","0","1","9","27","40","89","0","0","0","4"
"298","f","35","0","1","10","83","87","0","0","0","0","4"
"192","f","26","0","1","11","93","24","96","0","0","0","4"
"247","d","28","0","1","12","65","89","42","0","0","0","4"
"112","d","32","0","1","13","13","17","46","0","0","0","4"
"208","d","27","0","1","14","45","17","80","0","0","0","4"
"168","d","31","0","1","15","49","65","88","0","0","0","4"
"238","f","26","0","1","16","18","5","55","0","0","0","4"
"186","d","26","0","1","17","71","44","85","0","0","0","4"
"217","d","28","0","1","18","8","87","93","0","0","0","4"
"1183","d","30","0","1","19","58","75","77","0","0","0","4"
"908","d","26","0","1","20","86","82","6","0","0","0","4"
"488","k","30","0","0","21","85","34","6","1","0","1","4"
"44","j","30","0","0","22","41","97","16","0","0","0","4"
"76","j","0","0","0","23","28","52","35","0","0","1","4"
"131","j","0","0","0","24","41","23","98","1","0","1","4"
"104","j","30","0","0","25","55","5","26","1","0","0","4"
"51","k","30","0","0","26","18","36","57","1","0","1","4"
"114","k","0","0","0","27","60","71","31","0","0","0","4"
"202","k","0","0","0","28","9","7","85","1","0","0","4"
"183","k","0","0","0","29","27","35","88","1","0","0","4"
"14","j","0","0","0","30","17","32","41","0","0","1","4"
"150","j","30","0","0","31","49","24","78","1","0","0","4"
"4","k","30","0","0","32","84","26","13","0","0","1","4"
"178","k","0","0","0","33","64","32","7","1","0","0","4"
"16","k","0","0","0","34","66","48","21","0","0","0","4"
"76","j","30","0","0","35","79","44","33","0","0","0","4"
"106","k","30","0","0","36","36","16","60","0","0","1","4"
"146","j","0","0","0","37","76","68","50","0","0","1","4"
"238","k","30","0","0","38","87","35","50","0","0","1","4"
"147","j","30","0","0","39","34","2","91","1","0","0","4"
"6","k","0","0","0","40","16","25","12","1","0","0","4"
"5797","","","","","","","","","","","",""
"3652","","","","","","","","","","","",""
"128","k","30","3","0","43","22","91","59","1","0","1","4"
"52","k","0","3","0","44","68","92","78","0","0","0","4"
"262","f","29","3","1","45","80","83","43","0","0","0","4"
"173","d","34","3","1","46","96","24","49","1","0","0","4"
"227","j","0","3","0","47","76","94","21","0","0","1","4"
"18","j","30","3","0","48","48","52","4","0","0","0","4"
"168","f","35","3","1","49","76","17","49","0","0","0","4"
"146","k","30","3","0","50","1","26","26","1","0","1","4"
"5","f","30","3","1","51","78","23","59","0","0","1","4"
"253","f","28","3","1","52","6","93","49","1","0","1","4"
"96","k","0","3","0","53","59","74","13","1","0","0","4"
"null","null","-1","3","1","54","36","59","30","1","0","1","4"
"null","null","-1","3","0","55","13","2","73","0","0","1","4"
"205","f","35","3","1","56","27","32","84","0","0","0","4"
"96","d","35","3","1","57","32","83","29","1","0","0","4"
"9","k","30","3","0","58","70","51","28","0","0","1","4"
"251","f","38","3","1","59","84","9","58","1","0","0","4"
"426","f","33","3","1","60","93","79","37","1","0","1","4"
"101","k","0","3","0","61","21","19","85","1","0","0","4"
"114","k","30","3","0","62","23","0","25","0","0","1","4"
"null","null","-1","0","0","63","73","6","28","1","1","0","4"
"70","k","30","0","0","64","16","17","8","1","1","1","4"
"182","k","0","0","0","65","18","49","47","0","1","0","4"
"186","f","28","0","1","66","42","35","74","1","1","0","4"
"77","k","0","0","0","67","48","15","23","1","1","0","4"
"297","d","32","0","1","68","17","67","61","1","1","0","4"
"214","k","0","0","0","69","65","30","43","0","1","0","4"
"135","d","28","0","1","70","65","8","97","1","1","1","4"
"225","d","32","0","1","71","41","0","34","0","1","1","4"
"15","d","30","0","1","72","7","30","57","0","1","1","4"
"112","k","30","0","0","73","80","54","30","0","1","1","4"
"400","k","0","0","0","74","53","57","1","0","1","0","4"
"93","f","32","0","1","75","95","13","10","0","1","0","4"
"7","d","29","0","1","76","89","34","97","0","1","1","4"
"277","j","0","0","0","77","7","56","3","1","1","1","4"
"215","k","30","0","0","78","73","80","86","1","1","1","4"
"300","d","27","0","1","79","28","64","45","1","1","0","4"
"640","k","30","0","0","80","75","70","51","1","1","1","4"
"222","d","32","0","1","81","13","98","92","0","1","0","4"
"210","f","27","0","1","82","23","45","37","0","1","1","4"
"1517","f","36","4","1","83","49","63","58","0","2","0","4"
"358","f","28","4","1","84","5","25","69","1","2","1","4"
"84","k","0","4","0","85","20","75","90","0","2","0","4"
"414","k","0","4","0","86","63","18","70","1","2","0","4"
"0","k","0","4","0","87","84","13","97","0","2","0","4"
"38","f","32","4","1","88","76","46","33","1","2","1","4"
"41","f","31","4","1","89","94","36","7","0","2","0","4"
"147","f","33","4","1","90","8","20","4","1","2","1","4"
"117","k","30","4","0","91","88","46","94","1","2","1","4"
"170","f","28","4","1","92","13","80","82","0","2","0","4"
"273","f","30","4","1","93","82","5","58","0","2","1","4"
"141","k","30","4","0","94","87","20","61","1","2","1","4"
"15","f","30","4","1","95","12","72","10","0","2","1","4"
"62","d","32","4","1","96","77","82","10","0","2","1","4"
"92","f","35","4","1","97","63","49","92","0","2","1","4"
"60","k","0","4","0","98","82","32","71","0","2","0","4"
"638","k","30","4","0","99","83","90","14","1","2","1","4"
"10","j","30","4","0","100","20","80","36","1","2","0","4"
"161","k","0","4","0","101","75","41","62","1","2","0","4"
"39","k","0","4","0","102","16","41","11","1","2","0","4"
"222","d","29","1","1","103","78","82","71","1","3","1","4"
"108","k","30","1","0","104","71","53","89","0","3","1","4"
"164","k","30","1","0","105","87","62","97","0","3","1","4"
"105","j","0","1","0","106","1","5","22","0","3","1","4"
"155","k","30","1","0","107","86","45","80","1","3","1","4"
"72","j","30","1","0","108","98","61","45","1","3","0","4"
"194","f","33","1","1","109","30","32","25","1","3","0","4"
"523","k","0","1","0","110","12","77","41","0","3","0","4"
"307","d","30","1","1","111","20","14","59","0","3","0","4"
"395","d","32","1","1","112","96","97","58","1","3","0","4"
"205","d","28","1","1","113","27","75","16","1","3","1","4"
"41","j","0","1","0","114","7","17","34","0","3","1","4"
"95","f","32","1","1","115","79","63","8","0","3","0","4"
"260","j","30","1","0","116","72","88","10","0","3","0","4"
"102","f","36","1","1","117","60","1","93","0","3","0","4"
"197","f","29","1","1","118","65","52","37","1","3","1","4"
"177","k","30","1","0","119","24","27","41","1","3","1","4"
"119","d","30","1","1","120","77","45","80","1","3","0","4"
"142","d","27","1","1","121","37","10","46","0","3","1","4"
"114","k","0","1","0","122","58","80","15","1","3","0","4"
"287","d","32","0","1","123","29","76","83","0","4","0","4"
"87","d","30","0","1","124","7","94","86","0","4","1","4"
"165","f","31","0","1","125","48","82","33","0","4","1","4"
"153","k","0","0","0","126","62","0","61","0","4","0","4"
"86","d","30","0","1","127","77","35","84","1","4","0","4"
"91","j","0","0","0","128","27","39","79","0","4","1","4"
"142","k","30","0","0","129","11","46","24","1","4","1","4"
"168","f","28","0","1","130","21","60","58","1","4","1","4"
"187","k","30","0","0","131","35","21","67","0","4","1","4"
"64","f","28","0","1","132","92","60","57","1","4","0","4"
"25","j","0","0","0","133","15","34","76","0","4","1","4"
"105","k","0","0","0","134","6","40","76","1","4","0","4"
"399","k","0","0","0","135","27","8","46","0","4","0","4"
"186","d","26","0","1","136","47","4","68","1","4","1","4"
"321","f","33","0","1","137","24","19","69","0","4","0","4"
"126","k","0","0","0","138","42","53","31","0","4","0","4"
"108","k","30","0","0","139","23","16","61","1","4","1","4"
"261","f","26","0","1","140","83","80","44","1","4","1","4"
"293","d","26","0","1","141","5","3","4","1","4","0","4"
"103","k","0","0","0","142","72","32","47","1","4","0","4"
"184","k","30","3","0","143","12","96","70","0","5","1","4"
"234","d","30","3","1","144","8","61","95","1","5","1","4"
"513","k","30","3","0","145","42","38","36","1","5","1","4"
"27","k","0","3","0","146","42","57","82","0","5","0","4"
"139","j","30","3","0","147","35","60","65","0","5","0","4"
"75","d","34","3","1","148","96","7","67","0","5","1","4"
"8","j","30","3","0","149","10","92","34","0","5","0","4"
"172","d","32","3","1","150","6","1","53","0","5","1","4"
"293","d","31","3","1","151","95","26","18","0","5","0","4"
"70","d","31","3","1","152","46","56","72","1","5","0","4"
"28","f","29","3","1","153","70","81","97","1","5","0","4"
"109","j","0","3","0","154","32","20","30","1","5","1","4"
"67","j","0","3","0","155","88","25","64","1","5","1","4"
"258","d","34","3","1","156","10","43","94","0","5","0","4"
"216","d","34","3","1","157","40","35","7","0","5","0","4"
"171","k","30","3","0","158","19","78","92","1","5","1","4"
"83","d","35","3","1","159","41","1","8","1","5","0","4"
"228","k","30","3","0","160","70","78","91","1","5","1","4"
"214","k","30","3","0","161","31","81","19","0","5","1","4"
"13","d","37","3","1","162","1","69","2","1","5","0","4"
"37","j","30","2","0","163","85","10","55","0","6","0","4"
"117","k","30","2","0","164","38","0","33","1","6","1","4"
"89","f","37","2","1","165","81","43","13","1","6","0","4"
"54","f","37","2","1","166","37","39","84","1","6","0","4"
"58","k","0","2","0","167","93","13","46","0","6","0","4"
"61","d","35","2","1","168","15","29","78","0","6","1","4"
"116","f","32","2","1","169","73","37","51","1","6","0","4"
"118","d","34","2","1","170","56","98","15","0","6","0","4"
"109","j","0","2","0","171","31","96","66","1","6","1","4"
"159","f","36","2","1","172","26","57","23","0","6","0","4"
"218","k","30","2","0","173","33","63","82","1","6","1","4"
"170","d","35","2","1","174","95","98","46","1","6","1","4"
"135","d","37","2","1","175","29","4","66","1","6","1","4"
"146","k","30","2","0","176","76","98","42","1","6","1","4"
"54","f","33","2","1","177","99","23","20","0","6","1","4"
"199","k","30","2","0","178","21","33","78","0","6","1","4"
"173","d","35","2","1","179","58","80","72","0","6","0","4"
"295","j","30","2","0","180","41","56","62","1","6","0","4"
"118","k","30","2","0","181","66","69","7","0","6","1","4"
"48","j","30","2","0","182","17","2","64","0","6","0","4"
"80","f","37","2","1","183","14","13","85","1","7","0","4"
"92","f","32","2","1","184","72","81","29","0","7","1","4"
"533","f","30","2","1","185","27","11","65","0","7","0","4"
"122","d","35","2","1","186","3","68","7","1","7","0","4"
"697","d","30","2","1","187","11","16","71","1","7","0","4"
"6","d","32","2","1","188","90","49","96","1","7","1","4"
"206","d","35","2","1","189","76","49","32","1","7","0","4"
"32","j","0","2","0","190","36","77","31","0","7","1","4"
"79","j","0","2","0","191","75","66","72","0","7","1","4"
"129","k","30","2","0","192","44","2","3","0","7","1","4"
"48","d","35","2","1","193","7","63","1","1","7","0","4"
"77","j","0","2","0","194","76","62","79","1","7","1","4"
"33","k","0","2","0","195","80","55","73","0","7","0","4"
"426","j","30","2","0","196","46","14","18","1","7","0","4"
"482","k","30","2","0","197","12","71","58","0","7","1","4"
"192","j","30","2","0","198","29","76","3","0","7","0","4"
"84","k","0","2","0","199","29","54","22","1","7","0","4"
"34","d","34","2","1","200","98","72","35","0","7","1","4"
"63","k","30","2","0","201","19","44","52","0","7","1","4"
"185","d","34","2","1","202","89","46","49","1","7","1","4"
"185","j","30","4","0","203","2","56","11","0","8","0","4"
"174","k","30","4","0","204","16","89","82","1","8","1","4"
"221","d","35","4","1","205","74","78","89","1","8","1","4"
"56","j","30","4","0","206","27","66","91","0","8","0","4"
"222","d","35","4","1","207","50","0","67","1","8","1","4"
"161","k","30","4","0","208","89","56","34","1","8","1","4"
"289","f","31","4","1","209","94","35","40","0","8","1","4"
"33","k","0","4","0","210","89","14","80","1","8","0","4"
"91","f","29","4","1","211","97","68","33","1","8","0","4"
"193","k","0","4","0","212","28","83","35","0","8","0","4"
"124","f","34","4","1","213","57","98","23","0","8","0","4"
"77","j","0","4","0","214","20","91","17","0","8","1","4"
"191","k","30","4","0","215","78","65","51","0","8","1","4"
"250","d","32","4","1","216","92","17","31","1","8","1","4"
"179","f","32","4","1","217","2","92","63","0","8","0","4"
"350","f","32","4","1","218","35","46","41","0","8","0","4"
"247","k","30","4","0","219","3","89","1","1","8","1","4"
"null","null","-1","4","1","220","90","61","75","1","8","1","4"
"627","f","31","4","1","221","9","4","72","0","8","0","4"
"106","j","30","4","0","222","39","67","84","1","8","0","4"
"178","k","30","1","0","223","23","26","33","1","9","1","4"
"23","d","31","1","1","224","75","29","55","1","9","1","4"
"93","k","30","1","0","225","49","66","8","0","9","1","4"
"64","k","0","1","0","226","8","65","35","0","9","0","4"
"164","f","30","1","1","227","10","42","79","0","9","0","4"
"171","f","27","1","1","228","81","37","25","0","9","1","4"
"104","j","30","1","0","229","97","95","5","0","9","0","4"
"267","f","33","1","1","230","28","29","85","1","9","1","4"
"114","j","30","1","0","231","46","39","38","1","9","0","4"
"384","k","30","1","0","232","40","29","87","0","9","1","4"
"172","d","30","1","1","233","22","97","58","0","9","1","4"
"28","d","36","1","1","234","87","75","4","1","9","1","4"
"264","d","36","1","1","235","99","13","69","1","9","0","4"
"73","k","0","1","0","236","31","59","28","1","9","0","4"
"174","d","28","1","1","237","93","95","35","0","9","0","4"
"126","k","30","1","0","238","89","22","57","1","9","1","4"
"116","k","30","1","0","239","27","29","61","0","9","1","4"
"20","f","36","1","1","240","61","9","1","1","9","0","4"
"244","k","0","1","0","241","39","12","50","0","9","0","4"
"220","d","28","1","1","242","85","86","30","1","9","0","4"
