"rt","key_press","reward","color_reward_index","type","trial_num","stim_1","stim_2","new_stim","change_index","block","changed","marble_set"
"1417.300000011921","d","26","0","1","1","72","23","54","0","0","0","3"
"322","f","28","0","1","2","58","46","51","0","0","0","3"
"258","f","26","0","1","3","72","51","27","0","0","0","3"
"75.60000002384186","f","26","0","1","4","62","71","92","0","0","0","3"
"11","f","33","0","1","5","84","19","89","0","0","0","3"
"197.09999999403954","d","29","0","1","6","33","94","87","0","0","0","3"
"12.099999994039536","f","31","0","1","7","30","74","24","0","0","0","3"
"225","f","27","0","1","8","24","20","28","0","0","0","3"
"118.30000001192093","f","30","0","1","9","68","75","72","0","0","0","3"
"204.69999998807907","f","27","0","1","10","72","28","18","0","0","0","3"
"46","f","35","0","1","11","47","87","41","0","0","0","3"
"163.5","d","28","0","1","12","34","0","73","0","0","0","3"
"40.400000005960464","d","32","0","1","13","29","57","15","0","0","0","3"
"151.2999999821186","f","31","0","1","14","37","49","87","0","0","0","3"
"157.7999999821186","d","32","0","1","15","66","14","80","0","0","0","3"
"116.7000000178814","d","28","0","1","16","44","36","13","0","0","0","3"
"156.80000001192093","f","30","0","1","17","90","58","31","0","0","0","3"
"104.09999999403954","d","27","0","1","18","62","25","29","0","0","0","3"
"169","f","26","0","1","19","25","80","60","0","0","0","3"
"210","f","27","0","1","20","20","18","77","0","0","0","3"
"812.6999999880791","k","30","0","0","21","54","7","64","0","0","1","3"
"1014.6000000238419","j","30","0","0","22","98","65","68","0","0","0","3"
"653.5999999940395","k","30","0","0","23","69","43","19","0","0","1","3"
"959.5","k","0","0","0","24","64","14","95","1","0","0","3"
"753.2999999821186","j","0","0","0","25","79","12","89","1","0","1","3"
"801.5999999940395","k","30","0","0","26","3","13","26","1","0","1","3"
"1213","j","30","0","0","27","37","11","85","0","0","0","3"
"740.7000000178814","k","30","0","0","28","84","18","88","1","0","1","3"
"878.2000000178814","k","30","0","0","29","64","52","31","0","0","1","3"
"866.7999999821186","j","0","0","0","30","31","58","75","1","0","1","3"
"831.9000000059605","j","30","0","0","31","97","45","21","1","0","0","3"
"595.6000000238419","k","30","0","0","32","54","27","82","0","0","1","3"
"1280.9000000059605","k","0","0","0","33","9","19","92","1","0","0","3"
"1053.4000000059605","k","30","0","0","34","97","72","86","1","0","1","3"
"1060.9000000059605","j","30","0","0","35","21","88","20","1","0","0","3"
"662.9000000059605","j","30","0","0","36","59","27","24","1","0","0","3"
"599.3999999761581","k","30","0","0","37","25","45","0","0","0","1","3"
"1516.4000000059605","k","0","0","0","38","35","52","86","0","0","0","3"
"5115.299999982119","j","0","0","0","39","76","49","97","0","0","1","3"
"829","j","30","0","0","40","25","52","54","0","0","0","3"
"11456.299999982119","","","","","","","","","","","",""
"3340.699999988079","","","","","","","","","","","",""
"4873","","","","","","","","","","","",""
"3471.699999988079","","","","","","","","","","","",""
"783.8000000119209","f","28","0","1","45","68","73","60","1","0","0","3"
"232.39999997615814","d","31","0","1","46","79","94","18","0","0","1","3"
"58.30000001192093","d","29","0","1","47","89","62","73","0","0","1","3"
"119.2999999821186","f","27","0","1","48","5","48","8","1","0","1","3"
"null","null","-1","0","0","49","83","45","23","1","0","0","3"
"null","null","-1","0","0","50","62","91","3","0","0","0","3"
"1052","k","0","0","0","51","89","20","21","1","0","0","3"
"1084","k","30","0","0","52","23","91","54","0","0","1","3"
"963.3999999761581","k","30","0","0","53","93","34","1","0","0","1","3"
"785.5999999940395","k","30","0","0","54","88","72","11","1","0","1","3"
"995.8000000119209","j","30","0","0","55","89","13","93","0","0","0","3"
"1152.5","d","30","0","1","56","77","56","40","0","0","1","3"
"772.3999999761581","k","30","0","0","57","20","53","71","1","0","1","3"
"1153.800000011921","f","28","0","1","58","80","44","20","1","0","1","3"
"462.90000000596046","f","32","0","1","59","23","10","64","0","0","0","3"
"277.90000000596046","f","32","0","1","60","16","66","19","1","0","0","3"
"154","d","32","0","1","61","40","13","17","0","0","1","3"
"37","f","27","0","1","62","44","90","43","0","0","0","3"
"1433","j","30","0","0","63","39","54","26","1","0","0","3"
"1077.300000011921","j","30","0","0","64","61","29","57","1","0","0","3"
"299.69999998807907","d","28","4","1","65","71","45","0","1","1","0","3"
"564.5999999940395","f","30","4","1","66","30","72","24","1","1","0","3"
"1441.7000000178814","j","0","4","0","67","76","81","16","0","1","1","3"
"81.59999999403954","f","36","4","1","68","92","17","61","0","1","1","3"
"1718","j","30","4","0","69","41","44","59","1","1","0","3"
"657.5999999940395","k","30","4","0","70","22","11","7","0","1","1","3"
"1119.4000000059605","f","34","4","1","71","94","98","67","0","1","1","3"
"636.4000000059605","f","33","4","1","72","91","75","49","1","1","1","3"
"1162","j","0","4","0","73","55","62","62","1","1","1","3"
"1531","j","30","4","0","74","10","49","44","1","1","0","3"
"1267","f","36","4","1","75","82","66","37","0","1","1","3"
"881.3000000119209","k","30","4","0","76","31","53","4","1","1","1","3"
"854.5999999940395","k","30","4","0","77","60","91","89","0","1","1","3"
"1267.2999999821186","k","30","4","0","78","36","87","27","0","1","1","3"
"817.5","f","34","4","1","79","97","33","35","1","1","0","3"
"612.3000000119209","d","33","4","1","80","61","26","7","0","1","0","3"
"629.2999999821186","d","36","4","1","81","32","89","28","1","1","0","3"
"538.9000000059605","d","32","4","1","82","77","37","1","0","1","0","3"
"1319.9000000059605","j","30","4","0","83","19","13","15","0","1","0","3"
"1090.7000000178814","j","30","4","0","84","34","21","67","1","1","0","3"
"798.5","j","30","4","0","85","98","43","32","0","2","0","3"
"604.4000000059605","f","32","4","1","86","34","92","68","1","2","0","3"
"1052.5","j","30","4","0","87","28","54","19","0","2","0","3"
"486.59999999403954","d","33","4","1","88","6","80","59","1","2","1","3"
"709.7000000178814","f","32","4","1","89","69","7","46","1","2","1","3"
"372.40000000596046","f","32","4","1","90","68","46","44","0","2","1","3"
"477.90000000596046","f","31","4","1","91","4","54","77","0","2","0","3"
"84.80000001192093","d","31","4","1","92","4","33","23","0","2","1","3"
"418.69999998807907","f","39","4","1","93","91","87","90","1","2","0","3"
"54.099999994039536","f","36","4","1","94","97","39","62","0","2","0","3"
"1616.199999988079","k","0","4","0","95","6","30","46","1","2","0","3"
"1079","k","0","4","0","96","16","47","19","1","2","0","3"
"718","d","32","4","1","97","76","54","2","0","2","1","3"
"831.1999999880791","k","30","4","0","98","38","21","28","0","2","1","3"
"572.4000000059605","k","30","4","0","99","77","72","16","0","2","1","3"
"376.09999999403954","f","36","4","1","100","6","32","17","1","2","1","3"
"1021.2000000178814","j","30","4","0","101","52","77","75","0","2","0","3"
"735.7999999821186","k","30","4","0","102","62","21","98","1","2","1","3"
"620","k","30","4","0","103","93","96","51","1","2","1","3"
"679.4000000059605","j","30","4","0","104","8","0","5","1","2","0","3"
"625.4000000059605","k","30","0","0","105","48","38","70","1","3","1","3"
"843.5","d","29","0","1","106","94","86","15","1","3","1","3"
"38.80000001192093","f","28","0","1","107","23","65","60","0","3","1","3"
"388.59999999403954","f","30","0","1","108","41","58","52","0","3","1","3"
"1245.8999999761581","j","30","0","0","109","41","35","63","0","3","0","3"
"1280.300000011921","k","0","0","0","110","59","19","21","0","3","0","3"
"714.3000000119209","f","27","0","1","111","66","48","28","0","3","1","3"
"1056.5","j","30","0","0","112","65","18","70","0","3","0","3"
"594.7999999821186","f","30","0","1","113","98","95","76","1","3","0","3"
"594","k","30","0","0","114","47","32","24","1","3","1","3"
"678.2000000178814","d","28","0","1","115","46","4","2","1","3","0","3"
"625.8000000119209","d","31","0","1","116","74","15","52","1","3","0","3"
"703.8000000119209","k","30","0","0","117","3","21","7","1","3","1","3"
"1220.199999988079","k","30","0","0","118","22","14","5","1","3","1","3"
"888.4000000059605","d","27","0","1","119","18","41","4","0","3","0","3"
"301.69999998807907","k","0","0","0","120","5","63","18","0","3","0","3"
"816.2000000178814","f","31","0","1","121","48","14","91","0","3","1","3"
"583.9000000059605","d","27","0","1","122","37","93","88","1","3","0","3"
"1038.1000000238419","j","30","0","0","123","83","42","22","0","3","0","3"
"697","k","30","0","0","124","71","5","3","1","3","1","3"
"965.3000000119209","j","30","2","0","125","58","34","59","1","4","0","3"
"652.4000000059605","f","32","2","1","126","36","78","73","0","4","0","3"
"761.5","f","33","2","1","127","89","4","41","1","4","1","3"
"618.3000000119209","j","30","2","0","128","62","91","75","0","4","0","3"
"840.9000000059605","k","30","2","0","129","79","90","43","1","4","1","3"
"758.2999999821186","d","33","2","1","130","60","26","48","0","4","1","3"
"634.7999999821186","f","34","2","1","131","68","98","80","1","4","0","3"
"509.30000001192093","d","32","2","1","132","48","96","31","1","4","1","3"
"388.2000000178814","d","33","2","1","133","84","7","89","0","4","1","3"
"1190.1000000238419","j","30","2","0","134","43","37","20","0","4","0","3"
"712.2000000178814","f","34","2","1","135","74","98","39","0","4","1","3"
"570.5999999940395","f","32","2","1","136","31","28","73","0","4","0","3"
"844","j","30","2","0","137","87","15","24","1","4","0","3"
"1283.5","j","30","2","0","138","35","61","22","1","4","0","3"
"1068.7000000178814","k","30","2","0","139","51","42","11","0","4","1","3"
"1070.7999999821186","j","30","2","0","140","30","71","35","1","4","0","3"
"1223.9000000059605","k","30","2","0","141","34","89","26","0","4","1","3"
"557.2999999821186","d","33","2","1","142","46","93","58","1","4","1","3"
"775.0999999940395","d","36","2","1","143","49","28","17","0","4","1","3"
"791.7999999821186","j","30","2","0","144","38","24","8","1","4","0","3"
"633.8000000119209","d","28","3","1","145","85","37","52","1","5","0","3"
"507.80000001192093","f","35","3","1","146","40","29","72","1","5","1","3"
"751.5999999940395","k","30","3","0","147","98","61","45","1","5","1","3"
"868.3000000119209","k","30","3","0","148","55","80","0","1","5","1","3"
"858.0999999940395","j","30","3","0","149","11","20","40","0","5","0","3"
"704.0999999940395","j","30","3","0","150","1","41","5","1","5","0","3"
"651.8000000119209","k","30","3","0","151","18","78","81","0","5","1","3"
"804.5","j","30","3","0","152","72","17","8","0","5","0","3"
"714.3999999761581","d","34","3","1","153","40","27","49","1","5","1","3"
"812.8000000119209","f","31","3","1","154","83","77","69","0","5","0","3"
"1420.9000000059605","k","30","3","0","155","58","39","3","1","5","1","3"
"577.6000000238419","d","30","3","1","156","8","65","5","0","5","0","3"
"1052.4000000059605","j","30","3","0","157","82","24","73","1","5","0","3"
"601.5999999940395","f","28","3","1","158","85","5","82","0","5","1","3"
"1140.199999988079","j","30","3","0","159","60","95","98","0","5","0","3"
"246.40000000596046","f","35","3","1","160","37","82","12","1","5","1","3"
"234.69999998807907","f","32","3","1","161","24","89","71","0","5","0","3"
"1396.4000000059605","j","30","3","0","162","33","94","26","1","5","0","3"
"514.3000000119209","d","35","3","1","163","39","66","24","0","5","1","3"
"373.7000000178814","f","29","3","1","164","24","83","44","0","5","1","3"
"652.1999999880791","f","32","1","1","165","78","40","56","1","6","1","3"
"376.7999999821186","d","36","1","1","166","99","16","79","0","6","0","3"
"769","j","30","1","0","167","56","58","85","1","6","0","3"
"813.5999999940395","f","33","1","1","168","2","32","59","1","6","0","3"
"620.6999999880791","j","30","1","0","169","94","20","65","0","6","0","3"
"578.3000000119209","f","30","1","1","170","84","92","97","0","6","0","3"
"465.69999998807907","f","36","1","1","171","71","87","63","1","6","0","3"
"505.7000000178814","d","28","1","1","172","45","69","36","1","6","0","3"
"1363.7000000178814","j","0","1","0","173","75","41","3","0","6","1","3"
"473.80000001192093","k","30","1","0","174","34","62","54","0","6","1","3"
"1067.699999988079","k","30","1","0","175","79","76","41","0","6","1","3"
"435.69999998807907","k","30","1","0","176","38","2","31","1","6","1","3"
"851.7000000178814","j","30","1","0","177","59","53","27","1","6","0","3"
"688.3999999761581","k","30","1","0","178","26","62","47","0","6","1","3"
"899.5999999940395","f","29","1","1","179","83","59","73","0","6","0","3"
"836.1999999880791","k","30","1","0","180","64","28","74","1","6","1","3"
"942.2000000178814","f","28","1","1","181","51","69","73","0","6","0","3"
"772.9000000059605","k","30","1","0","182","34","13","2","1","6","1","3"
"542.1999999880791","f","32","1","1","183","81","10","75","0","6","1","3"
"617.4000000059605","f","27","1","1","184","91","16","32","1","6","1","3"
"663.1999999880791","f","35","2","1","185","77","95","10","1","7","1","3"
"650.7999999821186","j","30","2","0","186","28","67","97","1","7","0","3"
"818.8000000119209","k","0","2","0","187","39","33","5","1","7","0","3"
"539.5","f","36","2","1","188","92","88","11","0","7","1","3"
"987.0999999940395","j","30","2","0","189","48","24","42","1","7","0","3"
"939.4000000059605","j","30","2","0","190","62","73","68","0","7","0","3"
"810.5999999940395","f","31","2","1","191","95","16","62","1","7","1","3"
"563","d","36","2","1","192","74","30","9","1","7","0","3"
"857.5","k","30","2","0","193","95","9","80","0","7","1","3"
"743","k","30","2","0","194","80","70","86","0","7","1","3"
"670.6000000238419","f","40","2","1","195","13","9","3","0","7","0","3"
"1083.5","j","30","2","0","196","55","88","41","0","7","0","3"
"845.9000000059605","k","0","2","0","197","66","80","36","1","7","0","3"
"619.6999999880791","d","31","2","1","198","97","71","24","1","7","1","3"
"1310.800000011921","f","34","2","1","199","86","89","76","0","7","1","3"
"926.7000000178814","k","30","2","0","200","98","96","30","0","7","1","3"
"407.59999999403954","d","33","2","1","201","65","55","8","1","7","0","3"
"1360","k","30","2","0","202","17","33","64","0","7","1","3"
"627.1999999880791","f","37","2","1","203","6","39","91","1","7","1","3"
"689","f","40","2","1","204","72","87","23","0","7","0","3"
"616.5","f","36","1","1","205","4","1","93","0","8","0","3"
"886.6000000238419","j","30","1","0","206","31","93","15","0","8","0","3"
"619.0999999940395","f","33","1","1","207","83","41","25","0","8","1","3"
"1076","j","30","1","0","208","25","64","14","0","8","0","3"
"745","d","31","1","1","209","89","91","41","1","8","0","3"
"757.1999999880791","k","30","1","0","210","89","66","56","1","8","1","3"
"535.6999999880791","f","36","1","1","211","35","1","68","1","8","0","3"
"697.5","k","30","1","0","212","41","58","86","1","8","1","3"
"734.7000000178814","k","30","1","0","213","1","60","37","0","8","1","3"
"1127.0999999940395","k","30","1","0","214","76","46","96","0","8","1","3"
"868.5","f","29","1","1","215","73","81","46","1","8","1","3"
"603.1999999880791","d","29","1","1","216","4","33","77","1","8","1","3"
"619.9000000059605","f","31","1","1","217","22","56","87","1","8","1","3"
"851.0999999940395","j","30","1","0","218","58","80","8","1","8","0","3"
"780.0999999940395","k","30","1","0","219","65","96","69","1","8","1","3"
"797.6999999880791","j","30","1","0","220","68","94","2","0","8","0","3"
"707.6000000238419","k","0","1","0","221","20","92","89","0","8","0","3"
"620.4000000059605","d","30","1","1","222","42","20","77","0","8","0","3"
"581.2999999821186","f","33","1","1","223","18","29","26","0","8","0","3"
"538.3000000119209","d","30","1","1","224","76","62","3","1","8","1","3"
"805.7000000178814","j","0","3","0","225","91","32","86","0","9","1","3"
"723.5999999940395","j","30","3","0","226","80","1","83","0","9","0","3"
"542.3999999761581","d","30","3","1","227","73","28","18","0","9","1","3"
"699.8000000119209","j","30","3","0","228","25","50","2","1","9","0","3"
"714.7000000178814","d","33","3","1","229","67","33","30","0","9","0","3"
"601.5","d","34","3","1","230","58","24","93","1","9","0","3"
"705.9000000059605","f","29","3","1","231","59","78","30","1","9","0","3"
"865.4000000059605","k","0","3","0","232","52","76","1","1","9","0","3"
"587.4000000059605","f","31","3","1","233","83","46","86","0","9","1","3"
"689.6999999880791","f","30","3","1","234","78","8","82","1","9","1","3"
"775.7999999821186","j","30","3","0","235","39","57","63","0","9","0","3"
"672.0999999940395","d","30","3","1","236","55","18","97","0","9","0","3"
"707.6999999880791","k","30","3","0","237","85","80","40","1","9","1","3"
"684.9000000059605","j","30","3","0","238","77","95","13","0","9","0","3"
"741.5999999940395","j","30","3","0","239","55","70","67","1","9","0","3"
"661.9000000059605","f","33","3","1","240","45","79","66","1","9","1","3"
"1168.300000011921","j","0","3","0","241","35","85","34","0","9","1","3"
"683.6999999880791","f","28","3","1","242","30","72","63","0","9","1","3"
"90.2999999821186","f","32","3","1","243","30","15","94","1","9","1","3"
"680.9000000059605","k","30","3","0","244","36","2","82","1","9","1","3"
